MicroRheology Analysis v9.2.8 
08/21/18 12:48:35 PM

Correlation Mode:	Cross
Geometry:	Transmission
Multi-Tau Duration (s):	45
Echo Duration (s):	45
Wavelength (nm):	685.0
Temperature (°C):	40.00
Cuvette Thickness (mm):	5.00
Absorption Length (mm):	Inf
Solvent:	Water
Solvent Refractive Index:	1.328
Particle Radius (nm):	300.0
Mean Count Rate (kHz):	778.5
l* (microns):	1014.01



Lag Time (s)	Mean Square Displacement (micron^2)	Fit Lag Time (s)	Mean Square Displacement Fit (micron^2)	Frequency(rad/s)	G1 (Pa)	G2 (Pa)	G* (Pa)	Complex Viscosity (Pa s)	Loss Tangent (-)	Time (s)	Creep Compliance (1/Pa)

6.412500E-6	7.147418E-6	6.412518E-6	6.691004E-6	2.501129	-1.390082	0.335530	1.430003	0.571743	-0.241375	6.412500E-6	0.001558
7.212500E-6	7.566358E-6	7.035967E-6	7.181899E-6	2.744291	-1.668010	0.440483	1.725191	0.628647	-0.264077	7.212500E-6	0.001649
8.012500E-6	7.966795E-6	7.720020E-6	7.673486E-6	3.011100	-1.999493	0.591901	2.085263	0.692525	-0.296026	8.012500E-6	0.001737
8.812500E-6	8.349011E-6	8.470527E-6	8.164893E-6	3.303799	-2.390922	0.805661	2.523014	0.763671	-0.336966	8.812500E-6	0.001820
9.612500E-6	8.687754E-6	9.293917E-6	8.655603E-6	3.624997	-2.847220	1.101524	3.052870	0.842172	-0.386877	9.612500E-6	0.001894
1.041250E-5	9.162736E-6	1.019750E-5	9.145556E-6	3.977398	-3.371092	1.503566	3.691202	0.928045	-0.446017	1.041250E-5	0.001997
1.121250E-5	9.417554E-6	1.118881E-5	9.634722E-6	4.364087	-3.961479	2.040190	4.455972	1.021055	-0.515007	1.121250E-5	0.002053
1.201250E-5	9.789875E-6	1.227665E-5	1.012357E-5	4.788343	-4.612289	2.743970	5.366804	1.120806	-0.594926	1.201250E-5	0.002134
1.281250E-5	1.013252E-5	1.347012E-5	1.061255E-5	5.253856	-5.310576	3.650865	6.444457	1.226615	-0.687471	1.281250E-5	0.002209
1.441250E-5	1.061219E-5	1.477964E-5	1.110246E-5	5.764619	-6.035004	4.798949	7.710459	1.337549	-0.795186	1.441250E-5	0.002313
1.601250E-5	1.107283E-5	1.621646E-5	1.159417E-5	6.325029	-6.754472	6.226655	9.186627	1.452424	-0.921857	1.601250E-5	0.002414
1.761250E-5	1.159444E-5	1.779292E-5	1.208864E-5	6.939999	-7.426692	7.969762	10.893707	1.569699	-1.073124	1.761250E-5	0.002527
1.921250E-5	1.209705E-5	1.952276E-5	1.258699E-5	7.614705	-7.998360	10.058706	12.851122	1.687672	-1.257596	1.921250E-5	0.002637
2.081250E-5	1.259267E-5	2.142072E-5	1.309026E-5	8.354978	-8.405322	12.514996	15.075628	1.804389	-1.488937	2.081250E-5	0.002745
2.241250E-5	1.298263E-5	2.350315E-5	1.359957E-5	9.167179	-8.574264	15.347689	17.580374	1.917752	-1.789972	2.241250E-5	0.002830
2.401250E-5	1.349006E-5	2.578811E-5	1.411604E-5	10.058325	-8.425368	18.550453	20.374153	2.025601	-2.201738	2.401250E-5	0.002941
2.561250E-5	1.409443E-5	2.829530E-5	1.464075E-5	11.036286	-7.875794	22.097101	23.458687	2.125596	-2.805698	2.561250E-5	0.003072
2.881250E-5	1.475308E-5	3.104596E-5	1.517463E-5	12.109129	-6.845445	25.942501	26.830457	2.215721	-3.789747	2.881250E-5	0.003216
3.201250E-5	1.543788E-5	3.406434E-5	1.571875E-5	13.286348	-5.261068	30.020488	30.478001	2.293934	-5.706158	3.201250E-5	0.003365
3.521250E-5	1.605604E-5	3.737583E-5	1.627385E-5	14.578027	-3.062723	34.245550	34.382233	2.358497	-11.181405	3.521250E-5	0.003500
3.841250E-5	1.658887E-5	4.100960E-5	1.684078E-5	15.995241	-0.208468	38.516458	38.517022	2.408030	-184.760003	3.841250E-5	0.003616
4.161250E-5	1.711037E-5	4.499609E-5	1.742004E-5	17.550384	3.320831	42.718780	42.847662	2.441409	12.863881	4.161250E-5	0.003730
4.481250E-5	1.760851E-5	4.937099E-5	1.801233E-5	19.256413	7.519059	46.733935	47.334945	2.458139	6.215397	4.481250E-5	0.003838
4.801250E-5	1.818636E-5	5.417078E-5	1.861782E-5	21.128476	12.353995	50.442541	51.933333	2.457978	4.083096	4.801250E-5	0.003964
5.121250E-5	1.880989E-5	5.943688E-5	1.923674E-5	23.182693	17.766240	53.731649	56.592662	2.441160	3.024368	5.121250E-5	0.004100
5.761250E-5	1.952150E-5	6.521520E-5	1.986918E-5	25.436363	23.673314	56.502894	61.261757	2.408432	2.386776	5.761250E-5	0.004255
6.401250E-5	2.028418E-5	7.155497E-5	2.051494E-5	27.909144	29.974137	58.676320	65.888993	2.360839	1.957565	6.401250E-5	0.004422
7.041250E-5	2.100017E-5	7.851159E-5	2.117377E-5	30.622692	36.552133	60.193593	70.422490	2.299683	1.646787	7.041250E-5	0.004578
7.681250E-5	2.161323E-5	8.614456E-5	2.184510E-5	33.599733	43.283168	61.022906	74.814622	2.226643	1.409853	7.681250E-5	0.004711
8.321250E-5	2.224144E-5	9.451945E-5	2.252821E-5	36.866028	50.042861	61.158008	79.022717	2.143510	1.222113	8.321250E-5	0.004848
8.961250E-5	2.273613E-5	0.000104	2.322216E-5	40.450287	56.709675	60.616477	83.008099	2.052102	1.068891	8.961250E-5	0.004956
9.601250E-5	2.330491E-5	0.000114	2.392590E-5	44.382363	63.173802	59.439806	86.741108	1.954405	0.940893	9.601250E-5	0.005080
0.000102	2.393796E-5	0.000125	2.463815E-5	48.697271	69.339056	57.686637	90.197853	1.852216	0.831950	0.000102	0.005218
0.000115	2.464598E-5	0.000137	2.535742E-5	53.431809	75.125638	55.431009	93.361974	1.747311	0.737844	0.000115	0.005373
0.000128	2.540892E-5	0.000150	2.608205E-5	58.625896	80.474430	52.756994	96.225955	1.641356	0.655575	0.000128	0.005539
0.000141	2.613691E-5	0.000165	2.681008E-5	64.325222	85.345639	49.752997	98.788860	1.535772	0.582959	0.000141	0.005698
0.000154	2.671769E-5	0.000181	2.753969E-5	70.579168	89.717264	46.508985	101.055792	1.431808	0.518395	0.000154	0.005824
0.000166	2.727318E-5	0.000199	2.826852E-5	77.440400	93.585660	43.112577	103.038682	1.330555	0.460675	0.000166	0.005945
0.000179	2.772695E-5	0.000218	2.899454E-5	84.968943	96.961888	39.645270	104.753783	1.232848	0.408875	0.000179	0.006044
0.000192	2.822284E-5	0.000239	2.971517E-5	93.229145	99.869631	36.181249	106.221589	1.139360	0.362285	0.000192	0.006152
0.000205	2.881885E-5	0.000262	3.042818E-5	102.292415	102.342486	32.785348	107.465638	1.050573	0.320349	0.000205	0.006282
0.000230	2.945253E-5	0.000288	3.113099E-5	112.237782	104.420333	29.512999	108.510935	0.966795	0.282637	0.000230	0.006420
0.000256	3.010766E-5	0.000316	3.182107E-5	123.148615	106.148319	26.409856	109.384397	0.888231	0.248801	0.000256	0.006563
0.000282	3.076380E-5	0.000346	3.249602E-5	135.120834	107.573590	23.511584	110.112996	0.814922	0.218563	0.000282	0.006706
0.000307	3.128266E-5	0.000380	3.315353E-5	148.258466	108.743016	20.845832	110.723043	0.746824	0.191698	0.000307	0.006819
0.000333	3.177683E-5	0.000417	3.379121E-5	162.670584	109.703078	18.432224	111.240785	0.683841	0.168019	0.000333	0.006927
0.000358	3.221496E-5	0.000458	3.440695E-5	178.485657	110.497193	16.283466	111.690558	0.625768	0.147365	0.000358	0.007022
0.000384	3.262525E-5	0.000502	3.499881E-5	195.835924	111.166104	14.406794	112.095755	0.572396	0.129597	0.000384	0.007112
0.000410	3.302553E-5	0.000551	3.556490E-5	214.876832	111.746185	12.804893	112.477442	0.523451	0.114589	0.000410	0.007199
0.000461	3.347409E-5	0.000604	3.610382E-5	235.766201	112.270193	11.477068	112.855302	0.478675	0.102227	0.000461	0.007297
0.000512	3.396842E-5	0.000663	3.661433E-5	258.687524	112.766559	10.419685	113.246928	0.437775	0.092400	0.000512	0.007405
0.000563	3.447904E-5	0.000728	3.709544E-5	283.836255	113.259723	9.627309	113.668158	0.400471	0.085002	0.000563	0.007516
0.000614	3.491984E-5	0.000798	3.754655E-5	311.428227	113.770389	9.093089	114.133193	0.366483	0.079925	0.000614	0.007612
0.000666	3.532459E-5	0.000876	3.796753E-5	341.706476	114.315488	8.809437	114.654424	0.335535	0.077062	0.000666	0.007700
0.000717	3.564808E-5	0.000961	3.835845E-5	374.925876	114.908865	8.768355	115.242923	0.307375	0.076307	0.000717	0.007771
0.000768	3.598782E-5	0.001055	3.871987E-5	411.374523	115.561474	8.961676	115.908437	0.281759	0.077549	0.000768	0.007845
0.000819	3.636329E-5	0.001157	3.905270E-5	451.367510	116.281693	9.381297	116.659508	0.258458	0.080677	0.000819	0.007927
0.000922	3.679838E-5	0.001270	3.935833E-5	495.244661	117.075978	10.019396	117.503927	0.237264	0.085580	0.000922	0.008022
0.001024	3.728484E-5	0.001393	3.963852E-5	543.395946	117.948671	10.868368	118.448345	0.217978	0.092145	0.001024	0.008128
0.001126	3.773758E-5	0.001529	3.989540E-5	596.220930	118.902989	11.920916	119.499075	0.200428	0.100257	0.001126	0.008226
0.001229	3.810548E-5	0.001677	4.013156E-5	654.184309	119.940874	13.170175	120.661787	0.184446	0.109806	0.001229	0.008307
0.001331	3.842920E-5	0.001840	4.034994E-5	717.782601	121.063528	14.609571	121.941860	0.169887	0.120677	0.001331	0.008377
0.001434	3.864856E-5	0.002019	4.055393E-5	787.567839	122.271419	16.232738	123.344241	0.156614	0.132760	0.001434	0.008425
0.001536	3.893245E-5	0.002215	4.074720E-5	864.130981	123.564888	18.033586	124.873903	0.144508	0.145944	0.001536	0.008487
0.001638	3.930452E-5	0.002431	4.093389E-5	948.135419	124.944231	20.006473	126.535844	0.133458	0.160123	0.001638	0.008568
0.001843	3.974067E-5	0.002667	4.111844E-5	1040.314009	126.409601	22.145792	128.334810	0.123362	0.175191	0.001843	0.008663
0.002048	4.025568E-5	0.002926	4.130565E-5	1141.450478	127.961641	24.446116	130.275839	0.114132	0.191043	0.002048	0.008775
0.002253	4.075940E-5	0.003211	4.150069E-5	1252.422908	129.601100	26.902067	132.363766	0.105686	0.207576	0.002253	0.008885
0.002458	4.117745E-5	0.003523	4.170906E-5	1374.168502	131.329832	29.508686	134.604188	0.097953	0.224691	0.002458	0.008976
0.002662	4.159628E-5	0.003866	4.193666E-5	1507.762685	133.149908	32.261212	137.002495	0.090865	0.242292	0.002662	0.009068
0.002867	4.190581E-5	0.004241	4.218976E-5	1654.352802	135.064005	35.154597	139.564075	0.084362	0.260281	0.002867	0.009135
0.003072	4.222932E-5	0.004654	4.247502E-5	1815.184009	137.075801	38.184010	142.294743	0.078391	0.278561	0.003072	0.009205
0.003277	4.260652E-5	0.005106	4.279962E-5	1991.639221	139.190207	41.345284	145.201054	0.072905	0.297042	0.003277	0.009288
0.003686	4.306795E-5	0.005603	4.317105E-5	2185.276433	141.412097	44.633915	148.288797	0.067858	0.315630	0.003686	0.009388
0.004096	4.359966E-5	0.006147	4.359762E-5	2397.726611	143.747766	48.045479	151.564469	0.063212	0.334235	0.004096	0.009504
0.004506	4.413788E-5	0.006745	4.408803E-5	2630.823137	146.204442	51.576149	155.034958	0.058930	0.352767	0.004506	0.009622
0.004915	4.457050E-5	0.007401	4.465200E-5	2886.593835	148.789552	55.221868	158.706602	0.054981	0.371141	0.004915	0.009716
0.005325	4.501945E-5	0.008120	4.529977E-5	3167.203300	151.511999	58.979084	162.586648	0.051334	0.389270	0.005325	0.009814
0.005734	4.534617E-5	0.008910	4.604275E-5	3475.094156	154.381309	62.844835	166.682518	0.047965	0.407075	0.005734	0.009885
0.006144	4.567970E-5	0.009776	4.689366E-5	3812.951680	157.407079	66.816011	171.001076	0.044847	0.424479	0.006144	0.009958
0.006554	4.608527E-5	0.010726	4.786628E-5	4183.663757	160.599164	70.889406	175.548852	0.041961	0.441406	0.006554	0.010046
0.007373	4.656353E-5	0.011769	4.897624E-5	4590.358834	163.969326	75.063404	180.334285	0.039285	0.457789	0.007373	0.010150
0.008192	4.721920E-5	0.012913	5.024107E-5	5036.650394	167.527442	79.335849	185.363483	0.036803	0.473569	0.008192	0.010293
0.009011	4.806331E-5	0.014168	5.168044E-5	5526.259789	171.285928	83.706404	190.645302	0.034498	0.488694	0.009011	0.010477
0.009830	4.889868E-5	0.015546	5.331699E-5	6063.553633	175.254524	88.174324	196.185778	0.032355	0.503122	0.009830	0.010659
0.010650	4.977694E-5	0.017057	5.517600E-5	6653.003903	179.445234	92.741032	201.993789	0.030361	0.516821	0.010650	0.010851
0.011469	5.050089E-5	0.018715	5.728683E-5	7299.824355	183.867891	97.408608	208.076520	0.028504	0.529775	0.011469	0.011009
0.012288	5.121153E-5	0.020535	5.968370E-5	8009.512398	188.532333	102.180742	214.441938	0.026773	0.541980	0.012288	0.011164
0.013107	5.204444E-5	0.022531	6.240536E-5	8788.155925	193.447921	107.063521	221.098837	0.025159	0.553449	0.013107	0.011345
0.014746	5.309769E-5	0.024722	6.549680E-5	9642.484399	198.622768	112.065390	228.056255	0.023651	0.564212	0.014746	0.011575
0.016384	5.447678E-5	0.027125	6.901180E-5	10579.832871	204.064703	117.198435	235.325044	0.022243	0.574320	0.016384	0.011875
0.018022	5.616453E-5	0.029762	7.301122E-5	11608.394246	209.779157	122.477830	242.915857	0.020926	0.583842	0.018022	0.012243
0.019661	5.796458E-5	0.032656	7.756818E-5	12736.972329	215.770377	127.923311	250.841044	0.019694	0.592868	0.019661	0.012636
0.021299	6.007720E-5	0.035831	8.276842E-5	13975.268777	222.040508	133.559796	259.114273	0.018541	0.601511	0.021299	0.013096
0.022938	6.188660E-5	0.039314	8.871136E-5	15333.848237	228.591035	139.419519	267.752990	0.017462	0.609908	0.022938	0.013491
0.024576	6.390955E-5	0.043136	9.551673E-5	16824.572199	235.419689	145.541333	276.775558	0.016451	0.618221	0.024576	0.013932
0.026214	6.647316E-5	0.047329	0.000103	18460.136986	242.523141	151.973832	286.205380	0.015504	0.626636	0.026214	0.014490
0.029491	6.981522E-5	0.051931	0.000112	20254.807720	249.894517	158.775722	296.069247	0.014617	0.635371	0.029491	0.015219
0.032768	7.400772E-5	0.056979	0.000123	22224.154231	257.520601	166.015376	306.395112	0.013787	0.644668	0.032768	0.016133
0.036045	7.903687E-5	0.062519	0.000135	24384.532852	265.388785	173.778263	317.222465	0.013009	0.654806	0.036045	0.017229
0.039322	8.422023E-5	0.068596	0.000149	26755.255129	273.475816	182.162171	328.591050	0.012281	0.666100	0.039322	0.018359
0.042598	9.002051E-5	0.075265	0.000165	29356.208943	281.754939	191.284661	340.552004	0.011601	0.678904	0.042598	0.019623
0.045875	9.501829E-5	0.082582	0.000183	32210.307513	290.185917	201.280232	353.159452	0.010964	0.693625	0.045875	0.020713
0.049152	0.000101	0.090610	0.000205	35341.554363	298.719790	212.307828	366.480732	0.010370	0.710726	0.049152	0.021972
0.052429	0.000109	0.099420	0.000231	38777.554777	307.287243	224.548041	380.588061	0.009815	0.730743	0.052429	0.023691
0.058982	0.000120	0.109085	0.000261	42547.488609	315.798239	238.207851	395.564796	0.009297	0.754304	0.058982	0.026059
0.065536	0.000134	0.119689	0.000297	46683.772902	324.134042	253.522988	411.505508	0.008815	0.782155	0.065536	0.029106
0.072090	0.000150	0.131325	0.000339	51222.260470	332.137146	270.758170	428.514959	0.008366	0.815200	0.072090	0.032752
0.078643	0.000167	0.144092	0.000389	56202.123207	339.599510	290.206037	446.707255	0.007948	0.854554	0.078643	0.036484
0.085197	0.000186	0.158102	0.000448	61665.735215	346.252402	312.190579	466.212058	0.007560	0.901627	0.085197	0.040501
0.091750	0.000202	0.173472	0.000518	67660.626919	351.745824	337.062036	487.171367	0.007200	0.958255	0.091750	0.044122
0.098304	0.000223	0.190336	0.000602	74238.405765	355.631471	365.192615	509.744435	0.006866	1.026885	0.098304	0.048531
0.104858	0.000253	0.208841	0.000702	81455.454757	357.344375	396.977163	534.121587	0.006557	1.110909	0.104858	0.055169
0.117965	0.000291	0.229143	0.000822	89374.969588	356.175417	432.818606	560.529102	0.006272	1.215184	0.117965	0.063504
0.131072	0.000338	0.251421	0.000965	98063.275602	351.265813	473.153808	589.289570	0.006009	1.346996	0.131072	0.073764
0.144179	0.000403	0.275862	0.001137	107597.256487	341.575466	518.463077	620.868554	0.005770	1.517858	0.144179	0.087846
0.157286	0.000479	0.302682	0.001343	118056.410212	325.887154	569.384557	656.049701	0.005557	1.747183	0.157286	0.104324
0.170394	0.000596	0.332105	0.001589	129533.351562	302.751371	626.890467	696.168120	0.005374	2.070645	0.170394	0.129819
0.183501	0.000705	0.364393	0.001884	142126.882870	270.384737	692.652855	743.556241	0.005232	2.561731	0.183501	0.153693
