MicroRheology Analysis v9.2.8
08/21/18 3:21:46 PM

Correlation Mode:	Cross
Geometry:	Transmission
Multi-Tau Duration (s):	45
Echo Duration (s):	45
Wavelength (nm):	685.0
Temperature (°C):	14.99
Cuvette Thickness (mm):	5.00
Absorption Length (mm):	Inf
Solvent:	Water
Solvent Refractive Index:	1.329
Particle Radius (nm):	300.0
Mean Count Rate (kHz):	741.7
l* (microns):	795.48



Lag Time (s)	Mean Square Displacement (micron^2)	Fit Lag Time (s)	Mean Square Displacement Fit (micron^2)	Frequency(rad/s)	G1 (Pa)	G2 (Pa)	G* (Pa)	Complex Viscosity (Pa s)	Loss Tangent (-)	Time (s)	Creep Compliance (1/Pa)

6.412500E-6	3.238631E-6	6.412560E-6	3.301753E-6	0.151585	0.046139	3.535979	3.536280	23.328641	76.637385	6.412500E-6	0.000767
7.212500E-6	3.481178E-6	7.032554E-6	3.480143E-6	0.166239	0.174300	3.894098	3.897997	23.448167	22.341374	7.212500E-6	0.000825
8.012500E-6	3.723983E-6	7.712535E-6	3.670232E-6	0.182314	0.325029	4.274808	4.287147	23.515134	13.152102	8.012500E-6	0.000882
8.812500E-6	3.967047E-6	8.458176E-6	3.872455E-6	0.199940	0.500276	4.678277	4.704949	23.531759	9.351388	8.812500E-6	0.000940
9.612500E-6	4.226568E-6	9.275898E-6	4.087301E-6	0.219271	0.702057	5.104464	5.152518	23.498419	7.270722	9.612500E-6	0.001001
1.041250E-5	4.497168E-6	1.017277E-5	4.315263E-6	0.240471	0.932400	5.553221	5.630953	23.416386	5.955836	1.041250E-5	0.001065
1.121250E-5	4.673088E-6	1.115641E-5	4.556797E-6	0.263722	1.193302	6.024143	6.141194	23.286582	5.048295	1.121250E-5	0.001107
1.201250E-5	4.876944E-6	1.223504E-5	4.812313E-6	0.289221	1.486768	6.516792	6.684240	23.111198	4.383193	1.201250E-5	0.001155
1.281250E-5	5.131108E-6	1.341790E-5	5.082271E-6	0.317186	1.814735	7.030431	7.260870	22.891551	3.874081	1.281250E-5	0.001216
1.441250E-5	5.331005E-6	1.471522E-5	5.367123E-6	0.347849	2.179156	7.564374	7.872006	22.630504	3.471240	1.441250E-5	0.001263
1.601250E-5	5.557628E-6	1.613815E-5	5.667293E-6	0.381480	2.581917	8.117656	8.518371	22.329800	3.144042	1.601250E-5	0.001317
1.761250E-5	5.841826E-6	1.769832E-5	5.983058E-6	0.418364	3.024796	8.689140	9.200573	21.991780	2.872636	1.761250E-5	0.001384
1.921250E-5	6.111968E-6	1.940946E-5	6.314864E-6	0.458816	3.509499	9.277586	9.919182	21.619108	2.643564	1.921250E-5	0.001448
2.081250E-5	6.420639E-6	2.128625E-5	6.663042E-6	0.503182	4.037525	9.881426	10.674464	21.213941	2.447397	2.081250E-5	0.001521
2.241250E-5	6.733870E-6	2.334418E-5	7.027790E-6	0.551830	4.610298	10.499127	11.466757	20.779509	2.277321	2.241250E-5	0.001595
2.401250E-5	7.038413E-6	2.560124E-5	7.409436E-6	0.605177	5.229302	11.129230	12.296559	20.318957	2.128244	2.401250E-5	0.001667
2.561250E-5	7.443912E-6	2.807652E-5	7.808159E-6	0.663698	5.895517	11.769557	13.163571	19.833661	1.996357	2.561250E-5	0.001764
2.881250E-5	7.928856E-6	3.079100E-5	8.224104E-6	0.727867	6.609888	12.418253	14.067822	19.327457	1.878739	2.881250E-5	0.001878
3.201250E-5	8.438455E-6	3.376828E-5	8.657449E-6	0.798235	7.373334	13.073399	15.009324	18.803133	1.773065	3.201250E-5	0.001999
3.521250E-5	8.889753E-6	3.703311E-5	9.108164E-6	0.875419	8.186358	13.732674	15.987582	18.262780	1.677507	3.521250E-5	0.002106
3.841250E-5	9.278908E-6	4.061381E-5	9.576327E-6	0.960061	9.049305	14.393871	17.002160	17.709460	1.590605	3.841250E-5	0.002198
4.161250E-5	9.669146E-6	4.454064E-5	1.006186E-5	1.052883	9.962359	15.054724	18.052516	17.145789	1.511161	4.161250E-5	0.002291
4.481250E-5	1.007374E-5	4.884687E-5	1.056462E-5	1.154681	10.925417	15.712852	19.137880	16.574175	1.438192	4.481250E-5	0.002387
4.801250E-5	1.050074E-5	5.356956E-5	1.108451E-5	1.266314	11.938327	16.366046	20.257619	15.997310	1.370883	4.801250E-5	0.002488
5.121250E-5	1.097032E-5	5.874928E-5	1.162133E-5	1.388757	13.000332	17.011667	21.410405	15.416950	1.308556	5.121250E-5	0.002599
5.761250E-5	1.149768E-5	6.442950E-5	1.217473E-5	1.523013	14.111016	17.647765	22.595672	14.836166	1.250637	5.761250E-5	0.002724
6.401250E-5	1.205866E-5	7.065850E-5	1.274437E-5	1.670288	15.269148	18.271661	23.811772	14.256091	1.196639	6.401250E-5	0.002857
7.041250E-5	1.266290E-5	7.749070E-5	1.332997E-5	1.831782	16.473516	18.881224	25.057481	13.679295	1.146156	7.041250E-5	0.003000
7.681250E-5	1.324374E-5	8.498274E-5	1.393095E-5	2.008880	17.722767	19.474301	26.331442	13.107521	1.098830	7.681250E-5	0.003138
8.321250E-5	1.380202E-5	9.319911E-5	1.454685E-5	2.203100	19.015455	20.048917	27.632347	12.542486	1.054349	8.321250E-5	0.003270
8.961250E-5	1.426956E-5	0.000102	1.517716E-5	2.416127	20.349397	20.602800	28.958131	11.985349	1.012453	8.961250E-5	0.003381
9.601250E-5	1.476890E-5	0.000112	1.582120E-5	2.649698	21.723056	21.134545	30.307758	11.438195	0.972908	9.601250E-5	0.003499
0.000102	1.534516E-5	0.000123	1.647848E-5	2.905912	23.133980	21.642114	31.679048	10.901586	0.935512	0.000102	0.003635
0.000115	1.599552E-5	0.000135	1.714813E-5	3.186869	24.579809	22.124084	33.070260	10.377038	0.900092	0.000115	0.003790
0.000128	1.675290E-5	0.000148	1.782947E-5	3.494963	26.058436	22.579295	34.479946	9.865612	0.866487	0.000128	0.003969
0.000141	1.753310E-5	0.000162	1.852196E-5	3.832901	27.567147	23.006409	35.906022	9.367846	0.834559	0.000141	0.004154
0.000154	1.817361E-5	0.000178	1.922460E-5	4.203507	29.103084	23.404435	37.346447	8.884592	0.804191	0.000154	0.004306
0.000166	1.878360E-5	0.000195	1.993663E-5	4.609880	30.663961	23.772899	38.799861	8.416674	0.775272	0.000166	0.004450
0.000179	1.930942E-5	0.000214	2.065727E-5	5.055617	32.246790	24.111044	40.264102	7.964231	0.747704	0.000179	0.004575
0.000192	1.986848E-5	0.000235	2.138570E-5	5.544416	33.848923	24.418717	41.737553	7.527854	0.721403	0.000192	0.004707
0.000205	2.055087E-5	0.000257	2.212120E-5	6.080497	35.467562	24.695789	43.218398	7.107708	0.696292	0.000205	0.004869
0.000230	2.132392E-5	0.000282	2.286289E-5	6.668405	37.099893	24.942409	44.704875	6.703983	0.672304	0.000230	0.005052
0.000256	2.213064E-5	0.000309	2.361008E-5	7.313114	38.743259	25.158997	46.195403	6.316789	0.649377	0.000256	0.005243
0.000282	2.293859E-5	0.000339	2.436183E-5	8.020126	40.395424	25.346284	47.688828	5.946144	0.627454	0.000282	0.005434
0.000307	2.364541E-5	0.000372	2.511752E-5	8.795657	42.053425	25.504844	49.183204	5.591760	0.606487	0.000307	0.005602
0.000333	2.429636E-5	0.000408	2.587625E-5	9.646066	43.714935	25.635875	50.677349	5.253680	0.586433	0.000333	0.005756
0.000358	2.484052E-5	0.000448	2.663763E-5	10.578665	45.377674	25.740586	52.170020	4.931626	0.567252	0.000358	0.005885
0.000384	2.541204E-5	0.000491	2.740072E-5	11.601375	47.039772	25.820494	53.660396	4.625348	0.548908	0.000384	0.006020
0.000410	2.608373E-5	0.000538	2.816514E-5	12.723096	48.699016	25.877086	55.147237	4.334420	0.531368	0.000410	0.006180
0.000461	2.686912E-5	0.000590	2.893032E-5	13.953192	50.353818	25.912279	56.629968	4.058567	0.514604	0.000461	0.006366
0.000512	2.773009E-5	0.000647	2.969584E-5	15.302332	52.002348	25.927918	58.107668	3.797308	0.498591	0.000512	0.006570
0.000563	2.857817E-5	0.000710	3.046101E-5	16.781786	53.643361	25.926211	59.580018	3.550279	0.483307	0.000563	0.006770
0.000614	2.925976E-5	0.000779	3.122576E-5	18.404326	55.275891	25.909408	61.046880	3.316985	0.468729	0.000614	0.006932
0.000666	2.988550E-5	0.000854	3.198970E-5	20.184036	56.898381	25.879706	62.507479	3.096877	0.454841	0.000666	0.007080
0.000717	3.042367E-5	0.000936	3.275272E-5	22.135368	58.510543	25.839827	63.962335	2.889599	0.441627	0.000717	0.007208
0.000768	3.099849E-5	0.001027	3.351448E-5	24.275576	60.111645	25.792191	65.411367	2.694534	0.429071	0.000768	0.007344
0.000819	3.167563E-5	0.001126	3.427509E-5	26.622563	61.701721	25.739591	66.855283	2.511226	0.417162	0.000819	0.007504
0.000922	3.246603E-5	0.001235	3.503461E-5	29.196922	63.280255	25.684611	68.294142	2.339087	0.405887	0.000922	0.007692
0.001024	3.328857E-5	0.001355	3.579310E-5	32.019818	64.847554	25.630199	69.728849	2.177678	0.395238	0.001024	0.007886
0.001126	3.409242E-5	0.001486	3.655080E-5	35.115625	66.403834	25.579154	71.160117	2.026452	0.385206	0.001126	0.008077
0.001229	3.477564E-5	0.001629	3.730790E-5	38.510337	67.950038	25.534491	72.589378	1.884932	0.375783	0.001229	0.008239
0.001331	3.539673E-5	0.001787	3.806499E-5	42.233734	69.486968	25.499097	74.017854	1.752577	0.366962	0.001331	0.008386
0.001434	3.593912E-5	0.001959	3.882232E-5	46.317655	71.015143	25.475894	75.446483	1.628893	0.358739	0.001434	0.008514
0.001536	3.654631E-5	0.002149	3.958048E-5	50.795576	72.536186	25.468066	76.877309	1.513465	0.351108	0.001536	0.008658
0.001638	3.728232E-5	0.002357	4.034012E-5	55.706980	74.051287	25.478553	78.311875	1.405782	0.344066	0.001638	0.008833
0.001843	3.813750E-5	0.002584	4.110212E-5	61.093083	75.561891	25.510449	79.752005	1.305418	0.337610	0.001843	0.009035
0.002048	3.902192E-5	0.002834	4.186714E-5	66.999309	77.070176	25.566952	81.200253	1.211957	0.331736	0.002048	0.009245
0.002253	3.981839E-5	0.003108	4.263618E-5	73.477872	78.577403	25.651006	82.658227	1.124940	0.326443	0.002253	0.009433
0.002458	4.045215E-5	0.003409	4.341029E-5	80.581124	80.086399	25.766008	84.129178	1.044031	0.321728	0.002458	0.009584
0.002662	4.102279E-5	0.003738	4.419048E-5	88.373512	81.598514	25.914875	85.614825	0.968784	0.317590	0.002662	0.009719
0.002867	4.152522E-5	0.004100	4.497809E-5	96.916952	83.116761	26.101073	87.118666	0.898900	0.314029	0.002867	0.009838
0.003072	4.215353E-5	0.004496	4.577432E-5	106.288265	84.643230	26.327716	88.643246	0.833989	0.311043	0.003072	0.009987
0.003277	4.287360E-5	0.004931	4.658062E-5	116.565140	86.180246	26.598094	90.191426	0.773743	0.308633	0.003277	0.010157
0.003686	4.373926E-5	0.005408	4.739836E-5	127.833253	87.731330	26.915797	91.767349	0.717868	0.306798	0.003686	0.010362
0.004096	4.472254E-5	0.005931	4.822939E-5	140.195138	89.298221	27.283960	93.373373	0.666024	0.305538	0.004096	0.010595
0.004506	4.570672E-5	0.006504	4.907528E-5	153.747746	90.884639	27.706376	95.014004	0.617986	0.304852	0.004506	0.010828
0.004915	4.655835E-5	0.007133	4.993766E-5	168.613934	92.493201	28.186546	96.692676	0.573456	0.304742	0.004915	0.011030
0.005325	4.741545E-5	0.007823	5.081892E-5	184.917529	94.126669	28.728114	98.413080	0.532200	0.305207	0.005325	0.011233
0.005734	4.808903E-5	0.008579	5.172052E-5	202.794366	95.788662	29.335074	100.179910	0.493997	0.306248	0.005734	0.011393
0.006144	4.881190E-5	0.009408	5.264510E-5	222.402337	97.482085	30.011330	101.997239	0.458616	0.307865	0.006144	0.011564
0.006554	4.969793E-5	0.010318	5.359483E-5	243.905480	99.210317	30.761057	103.869772	0.425861	0.310059	0.006554	0.011774
0.007373	5.072060E-5	0.011316	5.457188E-5	267.488733	100.976443	31.588481	105.802052	0.395538	0.312830	0.007373	0.012016
0.008192	5.181185E-5	0.012410	5.557928E-5	293.349802	102.784135	32.498195	107.799402	0.367477	0.316179	0.008192	0.012275
0.009011	5.294085E-5	0.013610	5.661916E-5	321.713345	104.636595	33.494843	109.866835	0.341505	0.320106	0.009011	0.012542
0.009830	5.386078E-5	0.014926	5.769493E-5	352.817530	106.537413	34.583380	112.009957	0.317473	0.324613	0.009830	0.012760
0.010650	5.468490E-5	0.016368	5.880918E-5	386.928715	108.490336	35.769103	114.234766	0.295235	0.329699	0.010650	0.012955
0.011469	5.533465E-5	0.017951	5.996543E-5	424.341413	110.498537	37.057314	116.546863	0.274654	0.335365	0.011469	0.013109
0.012288	5.604858E-5	0.019687	6.116704E-5	465.365927	112.566079	38.453903	118.953036	0.255612	0.341612	0.012288	0.013279
0.013107	5.695517E-5	0.021590	6.241744E-5	510.359094	114.696673	39.965037	121.459998	0.237989	0.348441	0.013107	0.013493
0.014746	5.798985E-5	0.023678	6.372085E-5	559.704467	116.894298	41.597286	124.075022	0.221680	0.355854	0.014746	0.013738
0.016384	5.919192E-5	0.025967	6.508094E-5	613.827301	119.162158	43.357171	126.804827	0.206581	0.363850	0.016384	0.014023
0.018022	6.041441E-5	0.028477	6.650204E-5	673.172263	121.504862	45.252179	129.657978	0.192607	0.372431	0.018022	0.014313
0.019661	6.150934E-5	0.031231	6.798910E-5	738.260620	123.926117	47.289978	132.642469	0.179669	0.381598	0.019661	0.014572
0.021299	6.265015E-5	0.034250	6.954691E-5	809.639274	126.430202	49.478787	135.767250	0.167689	0.391353	0.021299	0.014842
0.022938	6.363812E-5	0.037562	7.118095E-5	887.920298	129.021113	51.827208	139.041386	0.156592	0.401696	0.022938	0.015077
0.024576	6.470347E-5	0.041194	7.289634E-5	973.763779	131.703315	54.344525	142.474877	0.146314	0.412628	0.024576	0.015329
0.026214	6.612233E-5	0.045177	7.469950E-5	1067.904233	134.481828	57.041019	146.078883	0.136790	0.424154	0.026214	0.015665
0.029491	6.758914E-5	0.049544	7.659657E-5	1171.164799	137.360413	59.926810	149.863623	0.127961	0.436274	0.029491	0.016013
0.032768	6.913456E-5	0.054335	7.859512E-5	1284.398790	140.344223	63.013131	153.841333	0.119777	0.448990	0.032768	0.016379
0.036045	7.067507E-5	0.059588	8.070183E-5	1408.584206	143.437631	66.311605	158.023995	0.112186	0.462303	0.036045	0.016744
0.039322	7.189376E-5	0.065350	8.292492E-5	1544.759232	146.646976	69.835694	162.426475	0.105147	0.476216	0.039322	0.017032
0.042598	7.321275E-5	0.071668	8.527328E-5	1694.136432	149.976205	73.598305	167.061583	0.098612	0.490733	0.042598	0.017345
0.045875	7.434140E-5	0.078597	8.775578E-5	1857.938520	153.431187	77.613671	171.944791	0.092546	0.505853	0.045875	0.017612
0.049152	7.525736E-5	0.086197	9.038280E-5	2037.570805	157.017473	81.896995	177.092080	0.086913	0.521579	0.049152	0.017829
0.052429	7.659998E-5	0.094530	9.316467E-5	2234.554001	160.742210	86.465432	182.522133	0.081682	0.537914	0.052429	0.018147
0.058982	7.862569E-5	0.103669	9.611354E-5	2450.623264	164.609976	91.335224	188.251341	0.076818	0.554858	0.058982	0.018627
0.065536	8.115903E-5	0.113692	9.924207E-5	2687.533237	168.629412	96.525893	194.301638	0.072297	0.572414	0.065536	0.019227
0.072090	8.406880E-5	0.124686	0.000103	2947.397089	172.806258	102.056539	200.692651	0.068091	0.590584	0.072090	0.019917
0.078643	8.678367E-5	0.136741	0.000106	3232.364808	177.149156	107.948616	207.448131	0.064178	0.609366	0.078643	0.020560
0.085197	8.905149E-5	0.149961	0.000110	3544.920341	181.665038	114.223654	214.590841	0.060535	0.628760	0.085197	0.021097
0.091750	9.057760E-5	0.164460	0.000114	3887.661425	186.363238	120.905516	222.147249	0.057142	0.648763	0.091750	0.021459
0.098304	9.219851E-5	0.180362	0.000118	4263.538263	191.252671	128.019134	230.144483	0.053980	0.669372	0.098304	0.021843
0.104858	9.468504E-5	0.197800	0.000123	4675.725327	196.344110	135.591771	238.612946	0.051032	0.690582	0.104858	0.022432
0.117965	9.825098E-5	0.216925	0.000127	5127.776174	201.648416	143.652015	247.584299	0.048283	0.712389	0.117965	0.023277
0.131072	0.000103	0.237897	0.000133	5623.541975	207.177920	152.230481	257.092998	0.045717	0.734781	0.131072	0.024424
0.144179	0.000108	0.260899	0.000138	6167.278796	212.945832	161.359588	267.175679	0.043321	0.757749	0.144179	0.025657
0.157286	0.000108	0.286126	0.000144	6763.642035	218.964305	171.071007	277.868055	0.041083	0.781273	0.157286	0.025623
0.170394	0.000116	0.313788	0.000150	7417.519518	225.251601	181.402615	289.214786	0.038991	0.805333	0.170394	0.027434
0.183501	0.000135	0.344126	0.000157	8134.666168	231.825273	192.393715	301.261181	0.037034	0.829908	0.183501	0.032049
0.399814	0.000165	0.377402	0.000165	8921.248522	238.702309	204.082199	314.051486	0.035203	0.854965	0.399814	0.039114
0.599722	0.000208	0.413885	0.000172	9783.745943	245.906589	216.512707	327.639746	0.033488	0.880467	0.599722	0.049262
0.799629	0.000267	0.453906	0.000181	10729.716735	253.460403	229.729284	342.078529	0.031881	0.906371	0.799629	0.063206
0.999536	0.000293	0.497790	0.000190	11767.095662	261.391044	243.779698	357.426663	0.030375	0.932625	0.999536	0.069373
1.199443	0.000330	0.545917	0.000200	12904.774011	269.729195	258.715277	373.747820	0.028962	0.959167	1.199443	0.078232
1.399350	0.000361	0.598699	0.000210	14152.579101	278.505473	274.585297	391.104057	0.027635	0.985924	1.399350	0.085491
1.599258	0.000394	0.656593	0.000222	15520.839493	287.759743	291.446749	409.569136	0.026388	1.012813	1.599258	0.093349
1.799165	0.000430	0.720068	0.000234	17021.484480	297.533479	309.357058	429.217848	0.025216	1.039739	1.799165	0.101769
1.999072	0.000462	0.789693	0.000247	18667.318018	307.872060	328.373144	450.126790	0.024113	1.066590	1.999072	0.109468
2.198979	0.000498	0.866040	0.000261	20472.140542	318.829125	348.556573	472.380880	0.023074	1.093239	2.198979	0.117905
2.398887	0.000532	0.949773	0.000277	22451.403845	330.465180	369.971970	496.071057	0.022095	1.119549	2.398887	0.126033
2.598794	0.000566	1.041601	0.000294	24622.168786	342.846218	392.682820	521.290060	0.021172	1.145361	2.598794	0.134200
2.798701	0.000600	1.142310	0.000312	27002.860768	356.046275	416.752307	548.134505	0.020299	1.170500	2.798701	0.142085
2.998608	0.000636	1.252763	0.000332	29613.588779	370.152241	442.248743	576.711914	0.019475	1.194775	2.998608	0.150580
3.198515	0.000671	1.373877	0.000354	32477.020016	385.254958	469.231582	607.124090	0.018694	1.217977	3.198515	0.159004
3.398423	0.000709	1.506708	0.000378	35616.953846	401.463617	497.766598	639.487781	0.017955	1.239880	3.398423	0.168042
3.598330	0.000742	1.652410	0.000404	39060.610776	418.896070	527.912334	673.917910	0.017253	1.260247	3.598330	0.175902
3.798237	0.000788	1.812152	0.000432	42837.227769	437.683733	559.720942	710.531198	0.016587	1.278825	3.798237	0.186684
3.998144	0.000828	1.987354	0.000464	46978.691667	457.979596	593.246785	749.457842	0.015953	1.295356	3.998144	0.196183
4.198051	0.000869	2.179525	0.000498	51521.256444	479.942635	628.520644	790.811692	0.015349	1.309575	4.198051	0.205784
4.397959	0.000900	2.390262	0.000535	56502.549903	503.755778	665.568188	834.716058	0.014773	1.321212	4.397959	0.213186
4.597866	0.000936	2.621370	0.000576	61964.974936	529.628439	704.410888	881.306407	0.014223	1.330010	4.597866	0.221726
4.797773	0.000975	2.874808	0.000622	67956.845780	557.772781	745.026284	930.685037	0.013695	1.335716	4.797773	0.231098
4.997680	0.001013	3.152729	0.000672	74527.282774	588.431826	787.380263	982.964746	0.013189	1.338099	4.997680	0.239893
5.197587	0.001047	3.457566	0.000727	81732.494141	621.869955	831.409486	1038.250439	0.012703	1.336951	5.197587	0.247949
5.397495	0.001079	3.791865	0.000788	89634.547279	658.371293	877.011549	1096.632125	0.012234	1.332093	5.397495	0.255548
5.597402	0.001135	4.158512	0.000856	98301.662534	698.227252	924.023054	1158.162294	0.011782	1.323384	5.597402	0.268848
5.797309	0.001174	4.560570	0.000931	107806.274843	741.744664	972.226343	1222.869252	0.011343	1.310729	5.797309	0.278056
5.997216	0.001231	5.001490	0.001015	118228.797586	789.240962	1021.337335	1290.748329	0.010917	1.294075	5.997216	0.291590
6.197124	0.001273	5.485031	0.001108	129659.053586	841.027209	1070.979769	1361.735815	0.010502	1.273419	6.197124	0.301548
6.397031	0.001290	6.015440	0.001212	142195.843018	897.372469	1120.644267	1435.660448	0.010096	1.248806	6.397031	0.305587
