MicroRheology Analysis v9.2.8
08/21/18 3:45:14 PM

Correlation Mode:	Cross
Geometry:	Transmission
Multi-Tau Duration (s):	45
Echo Duration (s):	45
Wavelength (nm):	685.0
Temperature (°C):	25.00
Cuvette Thickness (mm):	5.00
Absorption Length (mm):	Inf
Solvent:	Water
Solvent Refractive Index:	1.329
Particle Radius (nm):	300.0
Mean Count Rate (kHz):	738.9
l* (microns):	808.78



Lag Time (s)	Mean Square Displacement (micron^2)	Fit Lag Time (s)	Mean Square Displacement Fit (micron^2)	Frequency(rad/s)	G1 (Pa)	G2 (Pa)	G* (Pa)	Complex Viscosity (Pa s)	Loss Tangent (-)	Time (s)	Creep Compliance (1/Pa)

8.812500E-6	4.051574E-6	8.812629E-6	3.955882E-6	0.079401	1.085235	4.963948	5.081192	63.994197	4.574077	8.812500E-6	0.000928
9.612500E-6	4.282991E-6	9.547184E-6	4.189383E-6	0.086020	1.180916	5.319731	5.449230	63.348368	4.504749	9.612500E-6	0.000981
1.041250E-5	4.513504E-6	1.034307E-5	4.432872E-6	0.093191	1.291194	5.699498	5.843925	62.709388	4.414132	1.041250E-5	0.001033
1.121250E-5	4.743110E-6	1.120530E-5	4.686479E-6	0.100960	1.417714	6.104198	6.266669	62.070783	4.305663	1.121250E-5	0.001086
1.201250E-5	4.991081E-6	1.213945E-5	4.950362E-6	0.109376	1.562273	6.534831	6.718982	61.429880	4.182899	1.201250E-5	0.001143
1.281250E-5	5.221624E-6	1.315157E-5	5.224659E-6	0.118494	1.726813	6.992359	7.202428	60.783025	4.049286	1.281250E-5	0.001196
1.441250E-5	5.449091E-6	1.424788E-5	5.509407E-6	0.128372	1.913408	7.477656	7.718579	60.126528	3.908031	1.441250E-5	0.001248
1.601250E-5	5.745621E-6	1.543565E-5	5.804756E-6	0.139075	2.124187	7.991274	8.268775	59.455356	3.762038	1.601250E-5	0.001315
1.761250E-5	6.081892E-6	1.672236E-5	6.110741E-6	0.150668	2.361510	8.534024	8.854733	58.769911	3.613800	1.761250E-5	0.001392
1.921250E-5	6.429386E-6	1.811638E-5	6.427430E-6	0.163228	2.627789	9.106309	9.477877	58.065179	3.465388	1.921250E-5	0.001472
2.081250E-5	6.822174E-6	1.962674E-5	6.754867E-6	0.176835	2.925545	9.708442	10.139658	57.339494	3.318507	2.081250E-5	0.001562
2.241250E-5	7.171040E-6	2.126268E-5	7.092949E-6	0.191576	3.257436	10.340660	10.841593	56.591469	3.174479	2.241250E-5	0.001642
2.401250E-5	7.535233E-6	2.303527E-5	7.441774E-6	0.207548	3.626167	11.002889	11.585018	55.818551	3.034303	2.401250E-5	0.001725
2.561250E-5	8.002346E-6	2.495593E-5	7.801285E-6	0.224851	4.034426	11.694704	12.371043	55.018765	2.898728	2.561250E-5	0.001832
2.881250E-5	8.488926E-6	2.703615E-5	8.171250E-6	0.243593	4.485133	12.415915	13.201187	54.193552	2.768238	2.881250E-5	0.001944
3.201250E-5	9.008415E-6	2.929018E-5	8.551722E-6	0.263902	4.981052	13.165566	14.076328	53.339301	2.643130	3.201250E-5	0.002063
3.521250E-5	9.506290E-6	3.173159E-5	8.942419E-6	0.285900	5.525118	13.942941	14.997751	52.457966	2.523555	3.521250E-5	0.002177
3.841250E-5	9.861941E-6	3.437704E-5	9.343334E-6	0.309738	6.119964	14.746403	15.965912	51.546464	2.409557	3.841250E-5	0.002258
4.161250E-5	1.025131E-5	3.724265E-5	9.754142E-6	0.335557	6.768406	15.574690	16.981822	50.607899	2.301087	4.161250E-5	0.002347
4.481250E-5	1.065419E-5	4.034721E-5	1.017468E-5	0.363529	7.473161	16.426020	18.046115	49.641490	2.198001	4.481250E-5	0.002439
4.801250E-5	1.112575E-5	4.371102E-5	1.060475E-5	0.393836	8.236689	17.298168	19.159062	48.647354	2.100136	4.801250E-5	0.002547
5.121250E-5	1.164689E-5	4.735490E-5	1.104397E-5	0.426667	9.061332	18.188756	20.320890	47.627017	2.007294	5.121250E-5	0.002667
5.761250E-5	1.220750E-5	5.130262E-5	1.149208E-5	0.462234	9.949410	19.095311	21.531876	46.582212	1.919241	5.761250E-5	0.002795
6.401250E-5	1.280514E-5	5.557963E-5	1.194876E-5	0.500771	10.902775	20.014676	22.791615	45.513038	1.835741	6.401250E-5	0.002932
7.041250E-5	1.341229E-5	6.021312E-5	1.241361E-5	0.542518	11.923014	20.943587	24.099629	44.421791	1.756568	7.041250E-5	0.003071
7.681250E-5	1.397328E-5	6.523234E-5	1.288620E-5	0.587738	13.011799	21.878953	25.455755	43.311381	1.681470	7.681250E-5	0.003199
8.321250E-5	1.449599E-5	7.067010E-5	1.336618E-5	0.636737	14.170085	22.816819	26.858864	42.182070	1.610210	8.321250E-5	0.003319
8.961250E-5	1.491309E-5	7.656195E-5	1.385315E-5	0.689815	15.398672	23.753472	28.308065	41.037174	1.542566	8.961250E-5	0.003414
9.601250E-5	1.537855E-5	8.294408E-5	1.434653E-5	0.747320	16.697997	24.684899	29.802137	39.878681	1.478315	9.601250E-5	0.003521
0.000102	1.593335E-5	8.985896E-5	1.484594E-5	0.809622	18.067994	25.606869	31.339498	38.708825	1.417250	0.000102	0.003648
0.000115	1.655586E-5	9.735041E-5	1.535083E-5	0.877115	19.508275	26.515175	32.918495	37.530410	1.359176	0.000115	0.003791
0.000128	1.723559E-5	0.000105	1.586067E-5	0.950237	21.018160	27.405617	34.537384	36.346092	1.303902	0.000128	0.003946
0.000141	1.789956E-5	0.000114	1.637484E-5	1.029464	22.596016	28.273486	36.193507	35.157625	1.251260	0.000141	0.004098
0.000154	1.847820E-5	0.000124	1.689291E-5	1.115279	24.240238	29.114711	37.884767	33.968860	1.201090	0.000154	0.004231
0.000166	1.901417E-5	0.000134	1.741434E-5	1.208244	25.948950	29.925168	39.608884	32.782180	1.153232	0.000166	0.004353
0.000179	1.948571E-5	0.000145	1.793842E-5	1.308970	27.719630	30.700648	41.363120	31.599740	1.107542	0.000179	0.004461
0.000192	1.996958E-5	0.000157	1.846454E-5	1.418104	29.548905	31.436876	43.144118	30.423814	1.063893	0.000192	0.004572
0.000205	2.051342E-5	0.000171	1.899231E-5	1.536313	31.433692	32.130385	44.949290	29.257898	1.022164	0.000205	0.004697
0.000230	2.112113E-5	0.000185	1.952096E-5	1.664385	33.370327	32.777514	46.775465	28.103752	0.982235	0.000230	0.004836
0.000256	2.178683E-5	0.000200	2.004993E-5	1.803141	35.354491	33.374820	48.619118	26.963568	0.944005	0.000256	0.004988
0.000282	2.243703E-5	0.000217	2.057876E-5	1.953450	37.381861	33.919427	50.477035	25.839937	0.907377	0.000282	0.005137
0.000307	2.300424E-5	0.000235	2.110655E-5	2.116286	39.448178	34.408838	52.346221	24.734949	0.872254	0.000307	0.005267
0.000333	2.351266E-5	0.000254	2.163306E-5	2.292731	41.548139	34.840411	54.222708	23.649830	0.838555	0.000333	0.005383
0.000358	2.393725E-5	0.000276	2.215750E-5	2.483872	43.676528	35.212336	56.103009	22.586913	0.806207	0.000358	0.005481
0.000384	2.436705E-5	0.000299	2.267936E-5	2.690929	45.828369	35.523226	57.983955	21.547929	0.775136	0.000384	0.005579
0.000410	2.485873E-5	0.000324	2.319805E-5	2.915261	47.998211	35.771851	59.861955	20.533993	0.745275	0.000410	0.005692
0.000461	2.542852E-5	0.000351	2.371310E-5	3.158289	50.180616	35.957573	61.733631	19.546541	0.716563	0.000461	0.005822
0.000512	2.604435E-5	0.000380	2.422406E-5	3.421570	52.370339	36.080206	63.595862	18.586747	0.688944	0.000512	0.005963
0.000563	2.663840E-5	0.000411	2.473028E-5	3.706819	54.561825	36.139812	65.445235	17.655363	0.662364	0.000563	0.006099
0.000614	2.712952E-5	0.000446	2.523142E-5	4.015834	56.749661	36.137032	67.278593	16.753331	0.636780	0.000614	0.006211
0.000666	2.757502E-5	0.000483	2.572704E-5	4.350579	58.928969	36.072982	69.093295	15.881401	0.612143	0.000666	0.006313
0.000717	2.794648E-5	0.000523	2.621658E-5	4.713254	61.094570	35.948924	70.886329	15.039785	0.588414	0.000717	0.006399
0.000768	2.832751E-5	0.000567	2.669986E-5	5.106142	63.242156	35.766810	72.655592	14.229058	0.565553	0.000768	0.006486
0.000819	2.874886E-5	0.000614	2.717638E-5	5.531878	65.366232	35.528414	74.397664	13.448899	0.543529	0.000819	0.006582
0.000922	2.922624E-5	0.000665	2.764583E-5	5.992958	67.463440	35.236695	76.111368	12.700133	0.522308	0.000922	0.006692
0.001024	2.972496E-5	0.000721	2.810809E-5	6.492595	69.529542	34.894016	77.794277	11.982000	0.501859	0.001024	0.006806
0.001126	3.020103E-5	0.000781	2.856265E-5	7.033899	71.560489	34.503489	79.444284	11.294488	0.482158	0.001126	0.006915
0.001229	3.060198E-5	0.000846	2.900958E-5	7.620231	73.553444	34.068550	81.060319	10.637515	0.463181	0.001229	0.007007
0.001331	3.097296E-5	0.000916	2.944842E-5	8.255506	75.505211	33.592482	82.640739	10.010378	0.444903	0.001331	0.007091
0.001434	3.129460E-5	0.000993	2.987925E-5	8.943688	77.413595	33.079064	84.184851	9.412767	0.427303	0.001434	0.007165
0.001536	3.164608E-5	0.001075	3.030193E-5	9.689350	79.275978	32.531919	85.691344	8.843869	0.410363	0.001536	0.007246
0.001638	3.203590E-5	0.001165	3.071640E-5	10.497072	81.090571	31.955109	87.159679	8.303237	0.394067	0.001638	0.007335
0.001843	3.246164E-5	0.001262	3.112259E-5	11.372039	82.856413	31.352593	88.589899	7.790151	0.378397	0.001843	0.007432
0.002048	3.292490E-5	0.001367	3.152062E-5	12.320092	84.572101	30.728228	89.981466	7.303636	0.363338	0.002048	0.007538
0.002253	3.338865E-5	0.001481	3.191051E-5	13.347085	86.237214	30.086184	91.334744	6.843048	0.348877	0.002253	0.007645
0.002458	3.379352E-5	0.001605	3.229235E-5	14.459780	87.851538	29.430378	92.650094	6.407435	0.335001	0.002458	0.007737
0.002662	3.417074E-5	0.001739	3.266641E-5	15.665382	89.414585	28.764800	93.927534	5.995866	0.321701	0.002662	0.007824
0.002867	3.447349E-5	0.001884	3.303273E-5	16.971188	90.927112	28.093546	95.168204	5.607633	0.308968	0.002867	0.007893
0.003072	3.478437E-5	0.002041	3.339161E-5	18.385897	92.389915	27.420312	96.373077	5.241685	0.296789	0.003072	0.007964
0.003277	3.514617E-5	0.002211	3.374329E-5	19.918663	93.803984	26.748829	97.543259	4.897079	0.285157	0.003277	0.008047
0.003686	3.559083E-5	0.002395	3.408823E-5	21.579343	95.170240	26.082775	98.679713	4.572879	0.274064	0.003686	0.008149
0.004096	3.609804E-5	0.002595	3.442657E-5	23.378158	96.490492	25.425764	99.784189	4.268266	0.263505	0.004096	0.008265
0.004506	3.660881E-5	0.002811	3.475888E-5	25.327015	97.766618	24.781061	100.858379	3.982245	0.253472	0.004506	0.008382
0.004915	3.703545E-5	0.003045	3.508551E-5	27.438603	99.000278	24.151913	101.903728	3.713882	0.243958	0.004915	0.008480
0.005325	3.743192E-5	0.003299	3.540698E-5	29.725954	100.193562	23.541536	102.922076	3.462364	0.234961	0.005325	0.008570
0.005734	3.776525E-5	0.003574	3.572369E-5	32.203551	101.349247	22.952833	103.915843	3.226844	0.226473	0.005734	0.008647
0.006144	3.811588E-5	0.003872	3.603628E-5	34.888203	102.469746	22.388461	104.887045	3.006376	0.218489	0.006144	0.008727
0.006554	3.847613E-5	0.004195	3.634532E-5	37.797073	103.557249	21.851150	105.837501	2.800151	0.211006	0.006554	0.008809
0.007373	3.886638E-5	0.004545	3.665139E-5	40.947770	104.614883	21.343474	106.769929	2.607466	0.204019	0.007373	0.008899
0.008192	3.931560E-5	0.004924	3.695519E-5	44.361692	105.645015	20.867701	107.686258	2.427461	0.197527	0.008192	0.009002
0.009011	3.979324E-5	0.005334	3.725736E-5	48.059324	106.651046	20.426118	108.589465	2.259488	0.191523	0.009011	0.009111
0.009830	4.021205E-5	0.005779	3.755859E-5	52.066284	107.635348	20.020708	109.481491	2.102733	0.186005	0.009830	0.009207
0.010650	4.061951E-5	0.006260	3.785966E-5	56.406119	108.601241	19.653548	110.365264	1.956619	0.180970	0.010650	0.009300
0.011469	4.093515E-5	0.006782	3.816138E-5	61.108151	109.551713	19.326383	111.243368	1.820434	0.176413	0.011469	0.009372
0.012288	4.114686E-5	0.007348	3.846461E-5	66.202625	110.489764	19.040964	112.118448	1.693565	0.172332	0.012288	0.009421
0.013107	4.126877E-5	0.007960	3.877005E-5	71.722356	111.418172	18.798950	112.992962	1.575422	0.168724	0.013107	0.009449
0.014746	4.133326E-5	0.008624	3.907871E-5	77.701445	112.340001	18.601935	113.869697	1.465477	0.165586	0.014746	0.009464
0.016384	4.135463E-5	0.009343	3.939145E-5	84.178561	113.258317	18.451382	114.751470	1.363191	0.162914	0.016384	0.009468
0.018022	4.150812E-5	0.010122	3.970928E-5	91.195815	114.176007	18.348697	115.640976	1.268051	0.160705	0.018022	0.009504
0.019661	4.189528E-5	0.010965	4.003311E-5	98.797723	115.096155	18.295267	116.541159	1.179594	0.158956	0.019661	0.009592
0.021299	4.250142E-5	0.011880	4.036402E-5	107.034433	116.021435	18.292401	117.454610	1.097353	0.157664	0.021299	0.009731
0.022938	4.318362E-5	0.012870	4.070305E-5	115.956892	116.954851	18.341435	118.384312	1.020934	0.156825	0.022938	0.009887
0.024576	4.400335E-5	0.013943	4.105134E-5	125.623785	117.899068	18.443633	119.332970	0.949923	0.156436	0.024576	0.010075
0.026214	4.478631E-5	0.015105	4.141006E-5	136.095577	118.857158	18.600333	120.303767	0.883965	0.156493	0.026214	0.010254
0.029491	4.545674E-5	0.016364	4.178032E-5	147.443082	119.831448	18.812775	121.299202	0.822685	0.156994	0.029491	0.010408
0.032768	4.591476E-5	0.017729	4.216334E-5	159.734359	120.824727	19.082276	122.322311	0.765786	0.157934	0.032768	0.010512
0.036045	4.627540E-5	0.019206	4.256040E-5	173.049372	121.839733	19.410203	123.376159	0.712954	0.159309	0.036045	0.010595
0.039322	4.675870E-5	0.020808	4.297298E-5	187.474968	122.879081	19.797964	124.463761	0.663895	0.161117	0.039322	0.010706
0.042598	4.760571E-5	0.022542	4.340224E-5	203.104165	123.945300	20.247011	125.588132	0.618343	0.163354	0.042598	0.010900
0.045875	4.851475E-5	0.024421	4.384985E-5	220.037127	125.040751	20.758807	126.752189	0.576049	0.166016	0.045875	0.011108
0.049152	4.916487E-5	0.026457	4.431712E-5	238.379816	126.168087	21.334972	127.959241	0.536787	0.169100	0.049152	0.011257
0.052429	4.970699E-5	0.028663	4.480580E-5	258.252997	127.329574	21.977146	129.212288	0.500332	0.172600	0.052429	0.011381
0.058982	5.043632E-5	0.031052	4.531738E-5	279.780782	128.527664	22.687076	130.514611	0.466489	0.176515	0.058982	0.011548
0.065536	5.119971E-5	0.033641	4.585353E-5	303.101612	129.765076	23.466787	131.869880	0.435068	0.180841	0.065536	0.011723
0.072090	5.222040E-5	0.036445	4.641624E-5	328.372284	131.043819	24.318229	133.281127	0.405884	0.185573	0.072090	0.011956
0.078643	5.344091E-5	0.039484	4.700739E-5	355.747465	132.366365	25.243504	134.751953	0.378785	0.190709	0.078643	0.012236
0.085197	5.440854E-5	0.042775	4.762883E-5	385.405198	133.734770	26.244786	136.285646	0.353617	0.196245	0.085197	0.012457
0.091750	5.537604E-5	0.046341	4.828268E-5	417.528393	135.152076	27.324774	137.886645	0.330245	0.202178	0.091750	0.012679
0.098304	5.661142E-5	0.050204	4.897130E-5	452.340934	136.619767	28.485881	139.557896	0.308524	0.208505	0.098304	0.012962
0.104858	5.784226E-5	0.054390	4.969684E-5	490.044475	138.140795	29.730943	141.303957	0.288349	0.215222	0.104858	0.013243
0.117965	5.936573E-5	0.058923	5.046176E-5	530.896348	139.717275	31.063026	143.128713	0.269598	0.222328	0.117965	0.013592
0.131072	6.124768E-5	0.063835	5.126869E-5	575.152844	141.351883	32.485443	145.036750	0.252171	0.229820	0.131072	0.014023
0.144179	6.313276E-5	0.069157	5.212059E-5	623.107623	143.046384	34.001386	147.031841	0.235965	0.237695	0.144179	0.014455
0.157286	6.289997E-5	0.074923	5.302012E-5	675.049528	144.803650	35.614562	149.119060	0.220901	0.245951	0.157286	0.014401
0.170394	6.604140E-5	0.081168	5.397039E-5	731.325327	146.626003	37.328988	151.303133	0.206889	0.254586	0.170394	0.015121
0.183501	7.397235E-5	0.087935	5.497487E-5	792.293130	148.515751	39.148720	153.588902	0.193854	0.263600	0.183501	0.016936
0.399815	8.750109E-5	0.095265	5.603681E-5	858.337786	150.475786	41.078410	155.982044	0.181726	0.272990	0.399815	0.020034
0.599722	0.000106	0.103206	5.716022E-5	929.896312	152.508362	43.122809	158.487783	0.170436	0.282757	0.599722	0.024268
0.799630	0.000126	0.111811	5.834916E-5	1007.417573	154.616130	45.286949	161.111935	0.159926	0.292899	0.799630	0.028925
0.999537	0.000143	0.121131	5.960756E-5	1091.399296	156.801472	47.576108	163.860268	0.150138	0.303416	0.999537	0.032840
1.199445	0.000160	0.131230	6.094026E-5	1182.367268	159.068227	49.996767	166.740449	0.141023	0.314310	1.199445	0.036644
1.399352	0.000175	0.142169	6.235190E-5	1280.951606	161.417674	52.554591	169.757623	0.132525	0.325581	1.399352	0.040130
1.599260	0.000189	0.154022	6.384808E-5	1387.722739	163.854196	55.256702	172.920504	0.124607	0.337231	1.599260	0.043375
1.799167	0.000205	0.166862	6.543415E-5	1503.428080	166.379267	58.109774	176.235088	0.117222	0.349261	1.799167	0.046832
1.999074	0.000220	0.180770	6.711574E-5	1628.747101	168.996925	61.121553	179.710336	0.110337	0.361673	1.999074	0.050476
2.198982	0.000236	0.195843	6.890023E-5	1764.524637	171.710245	64.300527	183.354755	0.103912	0.374471	2.198982	0.054084
2.398889	0.000252	0.212168	7.079363E-5	1911.635619	174.521585	67.654751	187.176251	0.097914	0.387658	2.398889	0.057755
2.598797	0.000269	0.229854	7.280386E-5	2070.978598	177.435538	71.194108	191.185698	0.092317	0.401239	2.598797	0.061492
2.798704	0.000283	0.249014	7.493870E-5	2243.640564	180.454498	74.928256	195.392091	0.087087	0.415220	2.798704	0.064757
2.998612	0.000298	0.269773	7.720711E-5	2430.681704	183.581993	78.867381	199.805935	0.082202	0.429603	2.998612	0.068134
3.198519	0.000315	0.292263	7.961833E-5	2633.294956	186.822597	83.023534	204.439697	0.077636	0.444398	3.198519	0.072023
3.398426	0.000328	0.316627	8.218209E-5	2852.838704	190.178683	87.408105	209.303866	0.073367	0.459610	3.398426	0.075148
3.598334	0.000347	0.343022	8.490944E-5	3090.644994	193.654743	92.033968	214.411778	0.069374	0.475248	3.598334	0.079501
3.798241	0.000360	0.371619	8.781204E-5	3348.268517	197.255150	96.915512	219.777639	0.065639	0.491321	3.798241	0.082537
3.998149	0.000377	0.402597	9.090221E-5	3627.396677	200.983537	102.067344	225.415449	0.062142	0.507839	3.998149	0.086331
4.198056	0.000392	0.436161	9.419404E-5	3929.797587	204.844538	107.505489	231.341122	0.058868	0.524815	4.198056	0.089839
4.397964	0.000406	0.472526	9.770223E-5	4257.443928	208.840569	113.245263	237.568670	0.055801	0.542257	4.397964	0.092947
4.597871	0.000423	0.511915	0.000101	4612.297602	212.979261	119.306849	244.119417	0.052928	0.560181	4.597871	0.096770
4.797779	0.000437	0.554588	0.000105	4996.866709	217.262030	125.708031	251.008563	0.050233	0.578601	4.797779	0.100164
4.997686	0.000456	0.600823	0.000110	5413.410011	221.694901	132.469530	258.257247	0.047707	0.597531	4.997686	0.104298
5.197593	0.000470	0.650909	0.000114	5864.676941	226.283033	139.614382	265.887546	0.045337	0.616990	5.197593	0.107664
5.397501	0.000482	0.705167	0.000119	6353.619103	231.029305	147.164588	273.919615	0.043112	0.636995	5.397501	0.110383
5.597408	0.000499	0.763959	0.000124	6883.204921	235.940913	155.146962	282.380407	0.041025	0.657567	5.597408	0.114206
5.797316	0.000511	0.827647	0.000130	7457.015037	241.022387	163.589263	291.295792	0.039063	0.678731	5.797316	0.117022
5.997223	0.000529	0.896636	0.000136	8078.732874	246.277157	172.518855	300.691193	0.037220	0.700507	5.997223	0.121010
6.197131	0.000544	0.971379	0.000142	8752.182934	251.710955	181.966831	310.596736	0.035488	0.722920	6.197131	0.124486
6.397038	0.000556	1.052370	0.000149	9481.713314	257.330305	191.968508	321.046405	0.033860	0.746000	6.397038	0.127269
6.596946	0.000568	1.140101	0.000156	10272.170605	263.139262	202.559485	332.073209	0.032327	0.769781	6.596946	0.130139
6.796853	0.000580	1.235145	0.000164	11128.551216	269.142748	213.777817	343.713214	0.030886	0.794292	6.796853	0.132691
6.996760	0.000590	1.338115	0.000172	12056.315951	275.345082	225.663934	356.004389	0.029528	0.819568	6.996760	0.135054
7.196668	0.000605	1.449664	0.000181	13061.318358	281.753266	238.264584	368.991755	0.028251	0.845650	7.196668	0.138608
7.396575	0.000621	1.570508	0.000191	14150.255028	288.369430	251.625356	382.716929	0.027047	0.872580	7.396575	0.142171
7.596483	0.000631	1.701438	0.000201	15329.819467	295.199424	265.798071	397.229549	0.025912	0.900402	7.596483	0.144506
7.796390	0.000642	1.843256	0.000212	16607.675739	302.248608	280.839969	412.583700	0.024843	0.929169	7.796390	0.146929
7.996298	0.000656	1.996920	0.000224	17992.203363	309.519908	296.809941	428.834134	0.023834	0.958937	7.996298	0.150241
8.196205	0.000671	2.163407	0.000237	19492.180393	317.016524	313.771090	446.040103	0.022883	0.989763	8.196205	0.153653
8.396112	0.000685	2.343747	0.000251	21117.140152	324.741845	331.792519	464.266671	0.021985	1.021712	8.396112	0.156743
8.596020	0.000699	2.539130	0.000266	22877.528050	332.699605	350.950638	483.585957	0.021138	1.054857	8.596020	0.159973
8.795927	0.000710	2.750813	0.000282	24784.864216	340.888668	371.321979	504.068543	0.020338	1.089276	8.795927	0.162520
8.995835	0.000722	2.980122	0.000299	26850.932265	349.311769	392.994062	525.797532	0.019582	1.125052	8.995835	0.165257
9.195742	0.000736	3.228532	0.000317	29089.178939	357.970337	416.063538	548.863945	0.018868	1.162285	9.195742	0.168533
9.395650	0.000745	3.497722	0.000337	31514.333719	366.858455	440.624567	573.354284	0.018193	1.201075	9.395650	0.170568
9.595557	0.000761	3.789291	0.000359	34141.135571	375.979745	466.793844	599.380731	0.017556	1.241540	9.595557	0.174334
9.795465	0.000775	4.105203	0.000382	36987.513505	385.323268	494.680910	627.043239	0.016953	1.283808	9.795465	0.177437
9.995372	0.000791	4.447383	0.000407	40070.635277	394.890475	524.423029	656.473914	0.016383	1.328021	9.995372	0.181084
10.195279	0.000804	4.818167	0.000433	43411.687445	404.665373	556.148135	687.789803	0.015843	1.374341	10.195279	0.183969
10.395187	0.000814	5.219848	0.000462	47030.769252	414.638542	590.002337	721.129585	0.015333	1.422932	10.395187	0.186439
10.595094	0.000829	5.654973	0.000494	50950.893565	424.802531	626.158889	756.658539	0.014851	1.474000	10.595094	0.189710
10.795002	0.000846	6.126391	0.000527	55198.671758	435.134908	664.785883	794.532981	0.014394	1.527770	10.795002	0.193727
10.994909	0.000863	6.637118	0.000563	59800.163028	445.619379	706.077182	834.938092	0.013962	1.584485	10.994909	0.197694
11.194817	0.000879	7.190346	0.000602	64785.099922	456.236073	750.249627	878.080781	0.013554	1.644433	11.194817	0.201258
11.394724	0.000896	7.789844	0.000644	70185.890380	466.960271	797.537573	924.185087	0.013168	1.707935	11.394724	0.205096
11.594631	0.000902	8.439242	0.000689	76036.560952	477.775754	848.224233	973.526590	0.012803	1.775361	11.594631	0.206528
11.794539	0.000918	9.142737	0.000738	82376.061692	488.660445	902.619870	1026.407161	0.012460	1.847131	11.794539	0.210258
11.994446	0.000926	9.904908	0.000790	89243.488860	499.614469	961.119307	1083.219710	0.012138	1.923722	11.994446	0.211981
12.194354	0.000941	10.730696	0.000846	96683.078160	510.663111	1024.235036	1144.479891	0.011837	2.005696	12.194354	0.215508
12.394261	0.000954	11.625197	0.000907	104742.932793	521.876626	1092.653514	1210.886829	0.011561	2.093701	12.394261	0.218465
