MicroRheology Analysis v9.2.8
08/22/18 8:56:32 AM

Correlation Mode:	Cross
Geometry:	Transmission
Multi-Tau Duration (s):	120
Echo Duration (s):	60
Wavelength (nm):	685.0
Temperature (°C):	40.00
Cuvette Thickness (mm):	10.00
Absorption Length (mm):	Inf
Solvent:	Water
Solvent Refractive Index:	1.328
Particle Radius (nm):	465.0
Mean Count Rate (kHz):	173.2
l* (microns):	1008.21



Lag Time (s)	Mean Square Displacement (micron^2)	Fit Lag Time (s)	Mean Square Displacement Fit (micron^2)	Frequency(rad/s)	G1 (Pa)	G2 (Pa)	G* (Pa)	Complex Viscosity (Pa s)	Loss Tangent (-)	Time (s)	Creep Compliance (1/Pa)

5.212500E-6	1.638414E-6	5.212509E-6	1.703381E-6	1.250568	-2.486128	5.182127	5.747632	4.596016	-2.084416	5.212500E-6	0.000554
5.612500E-6	1.804063E-6	5.739439E-6	1.851972E-6	1.376996	-2.580773	6.067012	6.593104	4.788034	-2.350851	5.612500E-6	0.000610
6.012500E-6	1.966770E-6	6.319657E-6	2.007380E-6	1.516180	-2.631153	7.065279	7.539306	4.972566	-2.685241	6.012500E-6	0.000665
6.412500E-6	2.126563E-6	6.958509E-6	2.169498E-6	1.669449	-2.624261	8.182962	8.593463	5.147483	-3.118196	6.412500E-6	0.000719
7.212500E-6	2.266626E-6	7.661815E-6	2.338189E-6	1.838200	-2.545869	9.425068	9.762856	5.311096	-3.702102	7.212500E-6	0.000766
8.012500E-6	2.346742E-6	8.436358E-6	2.513391E-6	2.024025	-2.380484	10.794733	11.054093	5.461440	-4.534681	8.012500E-6	0.000793
8.812500E-6	2.624413E-6	9.289192E-6	2.694938E-6	2.228620	-2.111758	12.293459	12.473518	5.596969	-5.821433	8.812500E-6	0.000887
9.612500E-6	2.788383E-6	1.022823E-5	2.882687E-6	2.453897	-1.722610	13.920716	14.026893	5.716170	-8.081178	9.612500E-6	0.000942
1.041250E-5	3.002015E-6	1.126211E-5	3.076472E-6	2.701971	-1.195651	15.673235	15.718775	5.817523	-13.108539	1.041250E-5	0.001014
1.121250E-5	3.104049E-6	1.240063E-5	3.276174E-6	2.975091	-0.513612	17.545802	17.553318	5.900094	-34.161584	1.121250E-5	0.001049
1.201250E-5	3.280352E-6	1.365404E-5	3.481574E-6	3.275833	0.340394	19.530366	19.533332	5.962859	57.375757	1.201250E-5	0.001108
1.281250E-5	3.390906E-6	1.503427E-5	3.692558E-6	3.606972	1.382266	21.616395	21.660545	6.005188	15.638378	1.281250E-5	0.001146
1.441250E-5	3.593126E-6	1.655400E-5	3.908926E-6	3.971574	2.626631	23.791089	23.935646	6.026741	9.057644	1.441250E-5	0.001214
1.601250E-5	3.709480E-6	1.822748E-5	4.130525E-6	4.373054	4.086301	26.039040	26.357721	6.027303	6.372277	1.601250E-5	0.001253
1.761250E-5	3.869160E-6	2.007009E-5	4.357153E-6	4.815111	5.771811	28.342819	28.924543	6.007035	4.910559	1.761250E-5	0.001307
1.921250E-5	4.058602E-6	2.209877E-5	4.588607E-6	5.301821	7.691540	30.683937	31.633270	5.966491	3.989310	1.921250E-5	0.001371
2.081250E-5	4.248623E-6	2.433275E-5	4.824748E-6	5.837834	9.850452	33.040955	34.478053	5.905966	3.354258	2.081250E-5	0.001436
2.241250E-5	4.408191E-6	2.679245E-5	5.065351E-6	6.427894	12.251086	35.393510	37.453833	5.826766	2.889010	2.241250E-5	0.001489
2.401250E-5	4.635592E-6	2.950081E-5	5.310238E-6	7.077711	14.892559	37.719139	40.552704	5.729635	2.532751	2.401250E-5	0.001566
2.561250E-5	4.922248E-6	3.248278E-5	5.559194E-6	7.793181	17.770656	39.996091	43.766237	5.615966	2.250682	2.561250E-5	0.001663
2.881250E-5	5.259851E-6	3.576652E-5	5.812064E-6	8.580946	20.878126	42.202978	47.084896	5.487145	2.021397	2.881250E-5	0.001777
3.201250E-5	5.636348E-6	3.938212E-5	6.068613E-6	9.448288	24.205343	44.320057	50.499169	5.344796	1.831003	3.201250E-5	0.001904
3.521250E-5	5.903016E-6	4.336257E-5	6.328605E-6	10.403498	27.738607	46.327280	53.996733	5.190248	1.670137	3.521250E-5	0.001995
3.841250E-5	6.072427E-6	4.774597E-5	6.591908E-6	11.455054	31.462976	48.208538	57.567196	5.025484	1.532231	3.841250E-5	0.002052
4.161250E-5	6.277809E-6	5.257268E-5	6.858291E-6	12.613094	35.360584	49.948095	61.197901	4.851934	1.412536	4.161250E-5	0.002121
4.481250E-5	6.487875E-6	5.788686E-5	7.127508E-6	13.888128	39.411666	51.533370	64.876557	4.671368	1.307566	4.481250E-5	0.002192
4.801250E-5	6.727834E-6	6.373854E-5	7.399384E-6	15.291903	43.596088	52.954842	68.591793	4.485498	1.214670	4.801250E-5	0.002273
5.121250E-5	6.964354E-6	7.018197E-5	7.673700E-6	16.837736	47.891933	54.204719	72.331105	4.295774	1.131813	5.121250E-5	0.002353
5.761250E-5	7.219840E-6	7.727600E-5	7.950203E-6	18.539732	52.277536	55.278917	76.083503	4.103808	1.057412	5.761250E-5	0.002439
6.401250E-5	7.485905E-6	8.508793E-5	8.228734E-6	20.413965	56.730515	56.175257	79.837402	3.910921	0.990212	6.401250E-5	0.002529
7.041250E-5	7.738268E-6	9.368865E-5	8.509022E-6	22.477581	61.229134	56.894798	83.582444	3.718480	0.929211	7.041250E-5	0.002615
7.681250E-5	8.028317E-6	0.000103	8.790926E-6	24.749745	65.752324	57.440878	87.308777	3.527664	0.873595	7.681250E-5	0.002713
8.321250E-5	8.284916E-6	0.000114	9.074150E-6	27.251381	70.280981	57.819602	91.008366	3.339587	0.822692	8.321250E-5	0.002799
8.961250E-5	8.475639E-6	0.000125	9.358532E-6	30.006210	74.796362	58.038404	94.672869	3.155109	0.775952	8.961250E-5	0.002864
9.601250E-5	8.708052E-6	0.000138	9.643870E-6	33.039443	79.281877	58.107228	98.295809	2.975105	0.732919	9.601250E-5	0.002942
0.000102	8.957238E-6	0.000152	9.929972E-6	36.379501	83.721915	58.037048	101.870790	2.800225	0.693212	0.000102	0.003027
0.000115	9.178367E-6	0.000167	1.021659E-5	40.056750	88.104120	57.840868	105.394031	2.631118	0.656506	0.000115	0.003101
0.000128	9.487604E-6	0.000184	1.050362E-5	44.106164	92.416966	57.531843	108.861419	2.468168	0.622525	0.000128	0.003206
0.000141	9.772457E-6	0.000202	1.079085E-5	48.564740	96.651177	57.124448	112.270444	2.311769	0.591037	0.000141	0.003302
0.000154	1.002186E-5	0.000223	1.107815E-5	53.473723	100.799816	56.633533	115.619895	2.162181	0.561842	0.000154	0.003386
0.000166	1.024210E-5	0.000245	1.136534E-5	58.878881	104.857863	56.074093	118.909526	2.019562	0.534763	0.000166	0.003461
0.000179	1.042435E-5	0.000270	1.165227E-5	64.830616	108.822281	55.461181	122.140212	1.883990	0.509649	0.000179	0.003522
0.000192	1.062598E-5	0.000298	1.193892E-5	71.384798	112.690677	54.809497	125.312687	1.755453	0.486371	0.000192	0.003590
0.000205	1.085473E-5	0.000328	1.222514E-5	78.600791	116.462926	54.133886	128.429322	1.633944	0.464816	0.000205	0.003668
0.000230	1.112042E-5	0.000361	1.251083E-5	86.545304	120.141226	53.448579	131.493972	1.519366	0.444881	0.000230	0.003757
0.000256	1.142128E-5	0.000397	1.279604E-5	95.293734	123.728493	52.766957	134.510564	1.411536	0.426474	0.000256	0.003859
0.000282	1.170251E-5	0.000437	1.308067E-5	104.927745	127.227969	52.101905	137.482961	1.310263	0.409516	0.000282	0.003954
0.000307	1.196193E-5	0.000482	1.336481E-5	115.534800	130.644719	51.465924	140.416466	1.215361	0.393938	0.000307	0.004042
0.000333	1.219372E-5	0.000530	1.364842E-5	127.213724	133.984523	50.870519	143.316650	1.126582	0.379675	0.000333	0.004120
0.000358	1.238250E-5	0.000584	1.393164E-5	140.072492	137.254164	50.326564	146.189838	1.043673	0.366667	0.000358	0.004184
0.000384	1.257234E-5	0.000643	1.421460E-5	154.231285	140.460856	49.844117	149.042572	0.966358	0.354861	0.000384	0.004248
0.000410	1.279998E-5	0.000708	1.449741E-5	169.821773	143.612468	49.432610	151.881940	0.894361	0.344208	0.000410	0.004325
0.000461	1.306131E-5	0.000779	1.478030E-5	186.990143	146.716412	49.100673	154.714517	0.827394	0.334664	0.000461	0.004413
0.000512	1.336365E-5	0.000858	1.506350E-5	205.892378	149.781200	48.856569	157.548000	0.765196	0.326186	0.000512	0.004515
0.000563	1.364733E-5	0.000945	1.534731E-5	226.705278	152.814972	48.707713	160.389704	0.707481	0.318737	0.000563	0.004611
0.000614	1.390564E-5	0.001040	1.563205E-5	249.619198	155.827165	48.661276	163.248355	0.653990	0.312277	0.000614	0.004698
0.000666	1.413853E-5	0.001146	1.591813E-5	274.853581	158.825823	48.723570	166.131359	0.604436	0.306774	0.000666	0.004777
0.000717	1.434310E-5	0.001261	1.620599E-5	302.637671	161.819809	48.900867	169.047169	0.558579	0.302193	0.000717	0.004846
0.000768	1.454910E-5	0.001389	1.649613E-5	333.231504	164.817574	49.198904	172.003967	0.516170	0.298505	0.000768	0.004916
0.000819	1.479817E-5	0.001529	1.678909E-5	366.917229	167.827728	49.623238	175.010320	0.476975	0.295680	0.000819	0.005000
0.000922	1.508633E-5	0.001684	1.708556E-5	404.007965	170.858306	50.179076	178.074424	0.440770	0.293688	0.000922	0.005097
0.001024	1.542310E-5	0.001854	1.738621E-5	444.841547	173.918670	50.871862	181.206098	0.407350	0.292504	0.001024	0.005211
0.001126	1.574178E-5	0.002042	1.769177E-5	489.810430	177.016421	51.706523	184.413605	0.376500	0.292100	0.001126	0.005319
0.001229	1.602238E-5	0.002248	1.800312E-5	539.322298	180.160189	52.688342	187.706566	0.348042	0.292453	0.001229	0.005414
0.001331	1.627891E-5	0.002475	1.832112E-5	593.844138	183.357792	53.822453	191.094051	0.321792	0.293538	0.001331	0.005500
0.001434	1.650258E-5	0.002725	1.864689E-5	653.877761	186.616732	55.114013	194.585095	0.297586	0.295333	0.001434	0.005576
0.001536	1.674319E-5	0.003001	1.898147E-5	719.969515	189.945830	56.568826	198.190440	0.275276	0.297816	0.001536	0.005657
0.001638	1.704652E-5	0.003304	1.932607E-5	792.750402	193.352577	58.192628	201.919788	0.254708	0.300966	0.001638	0.005760
0.001843	1.737273E-5	0.003638	1.968197E-5	872.888203	196.844748	59.991514	205.783470	0.235750	0.304766	0.001843	0.005870
0.002048	1.773563E-5	0.004006	2.005061E-5	961.124276	200.430225	61.972048	209.792302	0.218278	0.309195	0.002048	0.005993
0.002253	1.809931E-5	0.004411	2.043345E-5	1058.277887	204.117082	64.141380	213.957706	0.202175	0.314238	0.002253	0.006115
0.002458	1.841747E-5	0.004857	2.083227E-5	1165.256820	207.912992	66.507062	218.291094	0.187333	0.319879	0.002458	0.006223
0.002662	1.870576E-5	0.005348	2.124882E-5	1283.047956	211.826021	69.077371	222.804727	0.173653	0.326104	0.002662	0.006320
0.002867	1.895866E-5	0.005889	2.168512E-5	1412.747704	215.864065	71.861243	227.511171	0.161042	0.332900	0.002867	0.006406
0.003072	1.921041E-5	0.006484	2.214321E-5	1555.555221	220.035592	74.868626	232.424122	0.149416	0.340257	0.003072	0.006491
0.003277	1.950635E-5	0.007139	2.262544E-5	1712.807718	224.348268	78.109985	237.556972	0.138694	0.348164	0.003277	0.006591
0.003686	1.987122E-5	0.007861	2.313436E-5	1885.942254	228.810720	81.597032	242.924724	0.128808	0.356614	0.003686	0.006714
0.004096	2.029329E-5	0.008655	2.367275E-5	2076.570876	233.432478	85.343231	248.544138	0.119690	0.365601	0.004096	0.006857
0.004506	2.071732E-5	0.009530	2.424362E-5	2286.505754	238.220700	89.362027	254.430096	0.111275	0.375123	0.004506	0.007000
0.004915	2.109449E-5	0.010494	2.485028E-5	2517.626544	243.185845	93.669471	260.601852	0.103511	0.385176	0.004915	0.007127
0.005325	2.145418E-5	0.011555	2.549622E-5	2772.144850	248.335288	98.281906	267.076296	0.096343	0.395763	0.005325	0.007249
0.005734	2.175278E-5	0.012723	2.618539E-5	3052.337097	253.680357	103.218923	273.875646	0.089727	0.406886	0.005734	0.007350
0.006144	2.206385E-5	0.014009	2.692225E-5	3360.901222	259.229602	108.501110	281.020422	0.083615	0.418552	0.006144	0.007455
0.006554	2.242998E-5	0.015425	2.771160E-5	3700.657512	264.992004	114.150499	288.532665	0.077968	0.430770	0.006554	0.007579
0.007373	2.289104E-5	0.016984	2.855853E-5	4074.707147	270.978982	120.193012	296.438811	0.072751	0.443551	0.007373	0.007735
0.008192	2.344319E-5	0.018701	2.946889E-5	4486.610849	277.200128	126.656523	304.765132	0.067928	0.456914	0.008192	0.007921
0.009011	2.405316E-5	0.020591	3.044915E-5	4940.177607	283.664504	133.570737	313.538981	0.063467	0.470876	0.009011	0.008127
0.009830	2.462482E-5	0.022673	3.150651E-5	5439.541186	290.383582	140.970035	322.792774	0.059342	0.485461	0.009830	0.008320
0.010650	2.517288E-5	0.024965	3.264886E-5	5989.424544	297.365709	148.890725	332.557985	0.055524	0.500699	0.010650	0.008506
0.011469	2.562330E-5	0.027488	3.388485E-5	6594.805782	304.623262	157.375359	342.873644	0.051991	0.516623	0.011469	0.008658
0.012288	2.611882E-5	0.030267	3.522459E-5	7261.488051	312.164002	166.468746	353.777059	0.048720	0.533273	0.012288	0.008825
0.013107	2.670326E-5	0.033326	3.667884E-5	7995.531237	319.997357	176.220826	365.310947	0.045689	0.550695	0.013107	0.009023
0.014746	2.741394E-5	0.036695	3.826000E-5	8803.751839	328.131845	186.687274	377.521716	0.042882	0.568940	0.014746	0.009263
0.016384	2.822396E-5	0.040404	3.998163E-5	9693.651758	336.576564	197.931102	390.461912	0.040280	0.588072	0.016384	0.009536
0.018022	2.910653E-5	0.044489	4.185955E-5	10673.651719	345.334696	210.018261	404.182783	0.037867	0.608159	0.018022	0.009835
0.019661	2.993849E-5	0.048986	4.391114E-5	11752.547712	354.413926	223.025918	418.747885	0.035630	0.629281	0.019661	0.010116
0.021299	3.082497E-5	0.053938	4.615615E-5	12940.629025	363.814233	237.036334	434.220013	0.033555	0.651531	0.021299	0.010415
0.022938	3.158366E-5	0.059390	4.861647E-5	14248.673355	373.538130	252.143986	450.674299	0.031629	0.675015	0.022938	0.010672
0.024576	3.237687E-5	0.065394	5.131771E-5	15689.094090	383.580191	268.450846	468.187591	0.029842	0.699856	0.024576	0.010940
0.026214	3.330757E-5	0.072004	5.428799E-5	17275.078205	393.932558	286.070128	486.845950	0.028182	0.726191	0.026214	0.011254
0.029491	3.451227E-5	0.079283	5.756042E-5	19021.286035	404.584064	305.130287	506.747232	0.026641	0.754183	0.029491	0.011661
0.032768	3.598183E-5	0.087298	6.117194E-5	20944.176078	415.513158	325.770359	527.993855	0.025210	0.784019	0.032768	0.012158
0.036045	3.762968E-5	0.096122	6.516395E-5	23061.364221	426.691091	348.143528	550.698832	0.023880	0.815915	0.036045	0.012714
0.039322	3.919690E-5	0.105839	6.958619E-5	25392.236221	438.085042	372.427309	574.996178	0.022645	0.850126	0.039322	0.013244
0.042598	4.076341E-5	0.116537	7.449219E-5	27959.108928	449.642766	398.812313	601.024024	0.021497	0.886954	0.042598	0.013773
0.045875	4.197889E-5	0.128317	7.994650E-5	30785.546659	461.298352	427.506934	628.934295	0.020430	0.926747	0.045875	0.014184
0.049152	4.331592E-5	0.141289	8.602198E-5	33897.369591	472.973135	458.749022	658.903825	0.019438	0.969926	0.049152	0.014636
0.052429	4.507901E-5	0.155572	9.280276E-5	37323.949042	484.561665	492.797493	691.121825	0.018517	1.016996	0.052429	0.015231
0.058982	4.741968E-5	0.171296	0.000100	41096.877376	495.935507	529.940515	725.802299	0.017661	1.068567	0.058982	0.016022
0.065536	5.041186E-5	0.188614	0.000109	45251.382100	506.930384	570.490050	763.175806	0.016865	1.125381	0.065536	0.017033
0.072090	5.383082E-5	0.207680	0.000118	49825.381087	517.351904	614.800588	803.512760	0.016127	1.188361	0.072090	0.018189
0.078643	5.701343E-5	0.228673	0.000129	54862.230529	526.952340	663.254322	847.103928	0.015441	1.258661	0.078643	0.019264
0.085197	6.032739E-5	0.251789	0.000141	60408.376059	535.430963	716.266511	894.272906	0.014804	1.337738	0.085197	0.020384
0.091750	6.311683E-5	0.277241	0.000155	66514.692910	542.426654	774.300910	945.393344	0.014213	1.427476	0.091750	0.021326
0.098304	6.623960E-5	0.305266	0.000170	73238.420767	547.494695	837.854596	1000.875000	0.013666	1.530343	0.098304	0.022381
0.104858	7.028455E-5	0.336124	0.000188	80641.047574	550.110083	907.493334	1061.209336	0.013160	1.649658	0.104858	0.023748
0.117965	7.538750E-5	0.370100	0.000208	88793.279975	549.625302	983.809208	1126.928804	0.012692	1.789963	0.117965	0.025472
0.131072	8.135157E-5	0.407515	0.000231	97768.580908	545.287374	1067.490053	1198.696514	0.012261	1.957665	0.131072	0.027487
0.144179	8.798520E-5	0.448708	0.000257	107651.987292	536.188509	1159.306777	1277.298055	0.011865	2.162125	0.144179	0.029729
0.157286	9.420492E-5	0.494065	0.000286	118534.562752	521.266280	1260.185899	1363.740091	0.011505	2.417547	0.157286	0.031830
0.170394	0.000100	0.544010	0.000320	130517.383003	499.270033	1371.290830	1459.352290	0.011181	2.746592	0.170394	0.033914
0.183501	0.000106	0.599000	0.000360	143708.950777	468.741459	1494.308206	1566.102030	0.010898	3.187916	0.183501	0.035976
0.399815	0.000234	0.659552	0.000405	158236.439156	427.912649	1631.725067	1686.901280	0.010661	3.813220	0.399815	0.079024
0.599722	0.000364	0.726219	0.000457	174233.065773	374.599957	1787.556028	1826.384867	0.010482	4.771907	0.599722	0.122853
