MicroRheology Analysis v9.2.8
08/22/18 8:54:19 AM

Correlation Mode:	Cross
Geometry:	Transmission
Multi-Tau Duration (s):	120
Echo Duration (s):	60
Wavelength (nm):	685.0
Temperature (°C):	40.00
Cuvette Thickness (mm):	10.00
Absorption Length (mm):	Inf
Solvent:	Water
Solvent Refractive Index:	1.328
Particle Radius (nm):	465.0
Mean Count Rate (kHz):	172.8
l* (microns):	975.06



Lag Time (s)	Mean Square Displacement (micron^2)	Fit Lag Time (s)	Mean Square Displacement Fit (micron^2)	Frequency(rad/s)	G1 (Pa)	G2 (Pa)	G* (Pa)	Complex Viscosity (Pa s)	Loss Tangent (-)	Time (s)	Creep Compliance (1/Pa)

2.212500E-6	1.018522E-6	2.212529E-6	1.215239E-6	1.250578	-0.460574	5.735550	5.754013	4.601083	-12.453059	2.212500E-6	0.000344
2.412500E-6	1.425119E-6	2.434253E-6	1.340630E-6	1.375901	-0.471678	6.360665	6.378130	4.635601	-13.485199	2.412500E-6	0.000482
2.612500E-6	1.696934E-6	2.678199E-6	1.472683E-6	1.513775	-0.456994	7.056772	7.071554	4.671468	-15.441723	2.612500E-6	0.000573
2.812500E-6	1.833395E-6	2.946582E-6	1.611277E-6	1.665480	-0.409914	7.829270	7.839994	4.707347	-19.099779	2.812500E-6	0.000619
3.012500E-6	1.651325E-6	3.241871E-6	1.756296E-6	1.832403	-0.322849	8.682997	8.688997	4.741860	-26.894884	3.012500E-6	0.000558
3.212500E-6	1.526259E-6	3.566773E-6	1.907614E-6	2.016012	-0.187216	9.622823	9.624644	4.774100	-51.399484	3.212500E-6	0.000516
3.612500E-6	1.762224E-6	3.924215E-6	2.065081E-6	2.218048	0.006612	10.652674	10.652676	4.802726	1611.067597	3.612500E-6	0.000595
4.012500E-6	1.955084E-6	4.317478E-6	2.228569E-6	2.440358	0.269150	11.775347	11.778423	4.826515	43.750072	4.012500E-6	0.000661
4.412500E-6	2.202166E-6	4.750154E-6	2.397950E-6	2.684918	0.611751	12.992861	13.007255	4.844563	21.238807	4.412500E-6	0.000744
4.812500E-6	2.375294E-6	5.226158E-6	2.573088E-6	2.953981	1.046519	14.305889	14.344116	4.855860	13.669975	4.812500E-6	0.000803
5.212500E-6	2.619932E-6	5.749915E-6	2.753892E-6	3.250009	1.586097	15.713615	15.793461	4.859513	9.907095	5.212500E-6	0.000885
5.612500E-6	2.781500E-6	6.326206E-6	2.940251E-6	3.575716	2.243414	17.213438	17.359013	4.854696	7.672877	5.612500E-6	0.000940
6.012500E-6	2.989713E-6	6.960199E-6	3.132035E-6	3.934056	3.031400	18.800915	19.043734	4.840738	6.202056	6.012500E-6	0.001010
6.412500E-6	3.111994E-6	7.657651E-6	3.329148E-6	4.328270	3.962901	20.470191	20.850259	4.817227	5.165456	6.412500E-6	0.001051
7.212500E-6	3.180861E-6	8.425031E-6	3.531539E-6	4.762053	5.050116	22.212891	22.779732	4.783594	4.398491	7.212500E-6	0.001075
8.012500E-6	3.364165E-6	9.269449E-6	3.739161E-6	5.239325	6.304082	24.018499	24.832030	4.739547	3.809991	8.012500E-6	0.001137
8.812500E-6	3.652856E-6	1.019828E-5	3.951871E-6	5.764324	7.735068	25.875802	27.007191	4.685231	3.345258	8.812500E-6	0.001234
9.612500E-6	3.835303E-6	1.122043E-5	4.169710E-6	6.342069	9.351327	27.770377	29.302579	4.620350	2.969672	9.612500E-6	0.001296
1.041250E-5	4.033673E-6	1.234487E-5	4.392555E-6	6.977628	11.159348	29.687329	31.715430	4.545302	2.660310	1.041250E-5	0.001363
1.121250E-5	4.198542E-6	1.358186E-5	4.620366E-6	7.676891	13.163474	31.610079	34.241409	4.460323	2.401348	1.121250E-5	0.001419
1.201250E-5	4.344887E-6	1.494304E-5	4.853167E-6	8.446204	15.365736	33.521411	36.875342	4.365907	2.181569	1.201250E-5	0.001468
1.281250E-5	4.574570E-6	1.644062E-5	5.090886E-6	9.292655	17.765480	35.403243	39.610629	4.262574	1.992811	1.281250E-5	0.001546
1.441250E-5	4.769001E-6	1.808829E-5	5.333487E-6	10.223921	20.359246	37.237329	42.439575	4.151008	1.829013	1.441250E-5	0.001611
1.601250E-5	4.924850E-6	1.990096E-5	5.580920E-6	11.248413	23.141411	39.006246	45.354296	4.032062	1.685560	1.601250E-5	0.001664
1.761250E-5	5.088024E-6	2.189510E-5	5.833142E-6	12.375673	26.103694	40.692818	48.345716	3.906512	1.558891	1.761250E-5	0.001719
1.921250E-5	5.231825E-6	2.408962E-5	6.090196E-6	13.616054	29.234484	42.280333	51.403129	3.775185	1.446249	1.921250E-5	0.001768
2.081250E-5	5.449819E-6	2.650375E-5	6.351939E-6	14.980495	32.521077	43.754929	54.517101	3.639206	1.345433	2.081250E-5	0.001841
2.241250E-5	5.758620E-6	2.915973E-5	6.618343E-6	16.481865	35.947842	45.103076	57.676120	3.499369	1.254681	2.241250E-5	0.001946
2.401250E-5	6.032654E-6	3.208203E-5	6.889370E-6	18.133440	39.498752	46.314841	60.870484	3.356808	1.172565	2.401250E-5	0.002038
2.561250E-5	6.336642E-6	3.529694E-5	7.164911E-6	19.950926	43.155123	47.380880	64.088317	3.212298	1.097920	2.561250E-5	0.002141
2.881250E-5	6.694313E-6	3.883458E-5	7.444950E-6	21.950319	46.897713	48.295370	67.318929	3.066877	1.029802	2.881250E-5	0.002262
3.201250E-5	6.969094E-6	4.272585E-5	7.729281E-6	24.149783	50.707825	49.055159	70.552761	2.921466	0.967408	3.201250E-5	0.002355
3.521250E-5	7.169665E-6	4.700832E-5	8.017946E-6	26.569896	54.566266	49.659020	73.780049	2.776829	0.910068	3.521250E-5	0.002423
3.841250E-5	7.367274E-6	5.171916E-5	8.310690E-6	29.232851	58.453326	50.108069	76.990972	2.633714	0.857232	3.841250E-5	0.002489
4.161250E-5	7.568275E-6	5.690158E-5	8.607401E-6	32.162432	62.350873	50.406428	80.177549	2.492894	0.808432	4.161250E-5	0.002557
4.481250E-5	7.838449E-6	6.260425E-5	8.908004E-6	35.385755	66.240871	50.559680	83.331472	2.354944	0.763270	4.481250E-5	0.002648
4.801250E-5	8.163700E-6	6.887812E-5	9.212274E-6	38.931423	70.108473	50.576432	86.447519	2.220508	0.721403	4.801250E-5	0.002758
5.121250E-5	8.466830E-6	7.578088E-5	9.520054E-6	42.833351	73.938167	50.465545	89.518846	2.089933	0.682537	5.121250E-5	0.002861
5.761250E-5	8.793146E-6	8.337571E-5	9.831158E-6	47.125709	77.717379	50.238671	92.541423	1.963714	0.646428	5.761250E-5	0.002971
6.401250E-5	9.134304E-6	9.173110E-5	1.014535E-5	51.848301	81.435473	49.908034	95.512031	1.842144	0.612854	6.401250E-5	0.003086
7.041250E-5	9.417337E-6	0.000101	1.046244E-5	57.044745	85.082780	49.486658	98.427683	1.725447	0.581630	7.041250E-5	0.003182
7.681250E-5	9.722497E-6	0.000111	1.078217E-5	62.761562	88.651883	48.988616	101.286924	1.613837	0.552595	7.681250E-5	0.003285
8.321250E-5	1.001907E-5	0.000122	1.110436E-5	69.050607	92.138187	48.428354	104.090110	1.507447	0.525606	8.321250E-5	0.003385
8.961250E-5	1.023468E-5	0.000134	1.142872E-5	75.970783	95.537594	47.819982	106.837177	1.406293	0.500536	8.961250E-5	0.003458
9.601250E-5	1.052053E-5	0.000148	1.175504E-5	83.583696	98.848939	47.178212	109.530345	1.310427	0.477276	9.601250E-5	0.003555
0.000102	1.077150E-5	0.000163	1.208303E-5	91.960592	102.071598	46.516927	112.171457	1.219777	0.455728	0.000102	0.003640
0.000115	1.101048E-5	0.000179	1.241245E-5	101.176394	105.207286	45.850124	114.764136	1.134298	0.435807	0.000115	0.003720
0.000128	1.131612E-5	0.000197	1.274306E-5	111.316605	108.258200	45.190880	117.311779	1.053857	0.417436	0.000128	0.003824
0.000141	1.163999E-5	0.000217	1.307463E-5	122.471862	111.228617	44.552032	119.819401	0.978342	0.400545	0.000141	0.003933
0.000154	1.190755E-5	0.000238	1.340688E-5	134.745724	114.123322	43.945379	122.291983	0.907576	0.385069	0.000154	0.004023
0.000166	1.219346E-5	0.000262	1.373963E-5	148.249683	116.947818	43.382157	124.734934	0.841384	0.370953	0.000166	0.004120
0.000179	1.242729E-5	0.000289	1.407267E-5	163.105696	119.708685	42.872879	127.154446	0.779583	0.358143	0.000179	0.004199
0.000192	1.266619E-5	0.000317	1.440580E-5	179.449833	122.413567	42.427238	129.557523	0.721971	0.346589	0.000192	0.004280
0.000205	1.293079E-5	0.000349	1.473890E-5	197.435369	125.068982	42.053933	131.949928	0.668320	0.336246	0.000205	0.004369
0.000230	1.322648E-5	0.000384	1.507175E-5	217.219716	127.683410	41.761457	134.339393	0.618449	0.327070	0.000230	0.004469
0.000256	1.353918E-5	0.000423	1.540429E-5	238.988976	130.264832	41.557148	136.733036	0.572131	0.319020	0.000256	0.004575
0.000282	1.385142E-5	0.000465	1.573649E-5	262.941872	132.820899	41.447832	139.137752	0.529158	0.312058	0.000282	0.004680
0.000307	1.412393E-5	0.000512	1.606826E-5	289.292476	135.360050	41.439879	141.561318	0.489336	0.306146	0.000307	0.004772
0.000333	1.437945E-5	0.000563	1.639964E-5	318.283865	137.890345	41.538941	144.011218	0.452462	0.301246	0.000333	0.004859
0.000358	1.459990E-5	0.000620	1.673068E-5	350.179193	140.419853	41.750261	146.495117	0.418343	0.297324	0.000358	0.004933
0.000384	1.485420E-5	0.000682	1.706148E-5	385.268898	142.957065	42.078765	149.021290	0.386798	0.294345	0.000384	0.005019
0.000410	1.514352E-5	0.000750	1.739226E-5	423.880858	145.509302	42.528782	151.597013	0.357641	0.292275	0.000410	0.005117
0.000461	1.545714E-5	0.000825	1.772322E-5	466.359688	148.084564	43.104601	154.230492	0.330711	0.291081	0.000461	0.005223
0.000512	1.581753E-5	0.000908	1.805465E-5	513.098364	150.690122	43.810080	156.929398	0.305847	0.290730	0.000512	0.005344
0.000563	1.617310E-5	0.000999	1.838684E-5	564.518717	153.333343	44.648976	159.701738	0.282899	0.291189	0.000563	0.005465
0.000614	1.646844E-5	0.001099	1.872036E-5	621.089404	156.021724	45.625008	162.555897	0.261727	0.292427	0.000614	0.005564
0.000666	1.675683E-5	0.001209	1.905556E-5	683.332993	158.762080	46.741675	165.499795	0.242195	0.294413	0.000666	0.005662
0.000717	1.701301E-5	0.001330	1.939316E-5	751.811880	161.561818	48.002696	168.542220	0.224181	0.297117	0.000717	0.005748
0.000768	1.728415E-5	0.001463	1.973372E-5	827.163729	164.426766	49.411321	171.690535	0.207565	0.300507	0.000768	0.005840
0.000819	1.761597E-5	0.001610	2.007804E-5	910.048372	167.364959	50.971635	174.954671	0.192248	0.304554	0.000819	0.005952
0.000922	1.799308E-5	0.001771	2.042693E-5	1001.259545	170.381732	52.687027	178.341968	0.178118	0.309229	0.000922	0.006080
0.001024	1.837928E-5	0.001949	2.078136E-5	1101.588052	173.484961	54.561841	181.862658	0.165091	0.314505	0.001024	0.006210
0.001126	1.874444E-5	0.002144	2.114238E-5	1211.988504	176.680788	56.600255	185.525443	0.153075	0.320353	0.001126	0.006333
0.001229	1.905592E-5	0.002359	2.151108E-5	1333.453271	179.975870	58.806688	189.339749	0.141992	0.326748	0.001229	0.006439
0.001331	1.934655E-5	0.002596	2.188878E-5	1467.089144	183.376625	61.185792	193.314996	0.131768	0.333662	0.001331	0.006537
0.001434	1.959332E-5	0.002856	2.227676E-5	1614.100606	186.890539	63.743044	197.462020	0.122336	0.341072	0.001434	0.006620
0.001536	1.987262E-5	0.003142	2.267660E-5	1775.856118	190.524352	66.484123	201.791148	0.113630	0.348953	0.001536	0.006715
0.001638	2.021805E-5	0.003457	2.308993E-5	1953.824389	194.285032	69.415071	206.313174	0.105595	0.357285	0.001638	0.006831
0.001843	2.060540E-5	0.003803	2.351850E-5	2149.622082	198.180410	72.542885	211.040150	0.098175	0.366045	0.001843	0.006962
0.002048	2.103765E-5	0.004184	2.396431E-5	2365.065068	202.216937	75.874436	215.982915	0.091322	0.375213	0.002048	0.007108
0.002253	2.145705E-5	0.004604	2.442935E-5	2602.063564	206.403207	79.418035	221.154941	0.084992	0.384771	0.002253	0.007250
0.002458	2.180498E-5	0.005065	2.491589E-5	2862.824601	210.747453	83.182889	226.569817	0.079142	0.394704	0.002458	0.007368
0.002662	2.213241E-5	0.005573	2.542653E-5	3149.750293	215.257000	87.178222	232.240432	0.073733	0.404996	0.002662	0.007478
0.002867	2.243903E-5	0.006131	2.596375E-5	3465.401301	219.940922	91.414819	238.182028	0.068731	0.415634	0.002867	0.007582
0.003072	2.278162E-5	0.006745	2.653057E-5	3812.687581	224.807935	95.904491	244.410063	0.064104	0.426606	0.003072	0.007698
0.003277	2.318336E-5	0.007421	2.713018E-5	4194.770790	229.867186	100.660180	250.941019	0.059822	0.437906	0.003277	0.007833
0.003686	2.363305E-5	0.008165	2.776597E-5	4615.134184	235.128620	105.696525	257.792986	0.055858	0.449526	0.003686	0.007985
0.004096	2.411013E-5	0.008983	2.844163E-5	5077.651158	240.601518	111.029124	264.984069	0.052186	0.461465	0.004096	0.008146
0.004506	2.457455E-5	0.009884	2.916135E-5	5586.501714	246.296333	116.675574	272.534536	0.048784	0.473720	0.004506	0.008303
0.004915	2.496857E-5	0.010874	2.992945E-5	6146.353292	252.223310	122.655192	280.465496	0.045631	0.486296	0.004915	0.008436
0.005325	2.533429E-5	0.011964	3.075091E-5	6762.298376	258.393716	128.989800	288.800417	0.042707	0.499199	0.005325	0.008560
0.005734	2.564260E-5	0.013163	3.163088E-5	7440.011872	264.817859	135.702847	297.563037	0.039995	0.512438	0.005734	0.008664
0.006144	2.601352E-5	0.014482	3.257541E-5	8185.615512	271.507501	142.820996	306.780312	0.037478	0.526030	0.006144	0.008790
0.006554	2.653320E-5	0.015933	3.359070E-5	9005.969390	278.472939	150.372893	316.479360	0.035141	0.539991	0.006554	0.008965
0.007373	2.718830E-5	0.017530	3.468404E-5	9908.441689	285.727044	158.391969	326.692454	0.032971	0.554347	0.007373	0.009186
0.008192	2.791409E-5	0.019287	3.586320E-5	10901.428403	293.280320	166.914153	337.451745	0.030955	0.569128	0.008192	0.009432
0.009011	2.864576E-5	0.021220	3.713657E-5	11993.900877	301.144895	175.980296	348.794083	0.029081	0.584371	0.009011	0.009679
0.009830	2.930131E-5	0.023346	3.851373E-5	13195.940593	309.330739	185.634769	360.757223	0.027339	0.600117	0.009830	0.009900
0.010650	2.992131E-5	0.025686	4.000546E-5	14518.399353	317.848478	195.927536	373.383522	0.025718	0.616418	0.010650	0.010110
0.011469	3.050878E-5	0.028260	4.162283E-5	15973.355318	326.708511	206.915127	386.719951	0.024210	0.633333	0.011469	0.010308
0.012288	3.117067E-5	0.031092	4.337950E-5	17574.205104	335.917193	218.658036	400.813794	0.022807	0.650928	0.012288	0.010532
0.013107	3.194995E-5	0.034208	4.528950E-5	19335.194375	345.484566	231.227765	415.723303	0.021501	0.669285	0.013107	0.010795
0.014746	3.288196E-5	0.037637	4.736916E-5	21272.828597	355.416642	244.703771	431.510052	0.020285	0.688498	0.014746	0.011110
0.016384	3.393322E-5	0.041408	4.963599E-5	23405.034058	365.710641	259.167889	448.232381	0.019151	0.708669	0.016384	0.011465
0.018022	3.503395E-5	0.045557	5.210993E-5	25750.243631	376.373009	274.722187	465.970946	0.018096	0.729920	0.018022	0.011837
0.019661	3.609952E-5	0.050123	5.481393E-5	28331.070561	387.393540	291.471704	484.798421	0.017112	0.752392	0.019661	0.012197
0.021299	3.719165E-5	0.055147	5.777309E-5	31170.101633	398.766145	309.539794	504.806222	0.016195	0.776244	0.021299	0.012566
0.022938	3.818692E-5	0.060673	6.101440E-5	34293.870557	410.472439	329.060916	526.088120	0.015341	0.801664	0.022938	0.012903
0.024576	3.929424E-5	0.066753	6.457046E-5	37730.508336	422.489490	350.187543	548.751934	0.014544	0.828867	0.024576	0.013277
0.026214	4.066077E-5	0.073443	6.847555E-5	41511.649413	434.784412	373.091607	572.917823	0.013801	0.858107	0.026214	0.013739
0.029491	4.233531E-5	0.080804	7.277053E-5	45672.315242	447.303891	397.955044	598.706095	0.013109	0.889675	0.029491	0.014304
0.032768	4.424656E-5	0.088901	7.749863E-5	50248.836824	459.991930	424.993570	626.268401	0.012463	0.923915	0.032768	0.014950
0.036045	4.628421E-5	0.097810	8.270988E-5	55284.377768	472.765865	454.443524	655.764042	0.011862	0.961244	0.036045	0.015639
0.039322	4.820215E-5	0.107612	8.846146E-5	60824.949919	485.519661	486.564713	687.367850	0.011301	1.002152	0.039322	0.016287
0.042598	5.004207E-5	0.118396	9.481629E-5	66920.808529	498.119995	521.646817	721.275905	0.010778	1.047231	0.042598	0.016908
0.045875	5.171500E-5	0.130261	0.000102	73627.592454	510.395154	560.005446	757.700015	0.010291	1.097200	0.045875	0.017474
0.049152	5.366341E-5	0.143315	0.000110	81005.304322	522.139801	602.002329	796.891947	0.009838	1.152952	0.049152	0.018132
0.052429	5.609786E-5	0.157677	0.000118	89123.156202	533.089255	648.030858	839.123440	0.009415	1.215614	0.052429	0.018955
0.058982	5.909986E-5	0.173481	0.000128	98055.715028	542.909214	698.503241	884.679147	0.009022	1.286593	0.058982	0.019969
0.065536	6.260721E-5	0.190864	0.000138	107881.272480	551.208878	753.900924	933.915323	0.008657	1.367723	0.065536	0.021154
0.072090	6.637057E-5	0.209993	0.000150	118693.921206	557.480319	814.710605	987.186748	0.008317	1.461416	0.072090	0.022426
0.078643	7.001157E-5	0.231039	0.000163	130588.356589	561.124014	881.470331	1044.916314	0.008002	1.570901	0.078643	0.023656
0.085197	7.379917E-5	0.254191	0.000178	143674.054010	561.403433	954.760381	1107.583495	0.007709	1.700667	0.085197	0.024936
0.091750	7.732539E-5	0.279664	0.000194	158072.628975	557.418858	1035.179716	1175.718005	0.007438	1.857095	0.091750	0.026127
0.098304	8.151278E-5	0.307691	0.000213	173915.602628	548.084526	1123.334056	1249.910416	0.007187	2.049564	0.098304	0.027542
0.104858	8.701057E-5	0.338526	0.000233	191345.151339	532.102275	1219.847649	1330.849772	0.006955	2.292506	0.104858	0.029399
0.117965	9.386891E-5	0.372451	0.000255	210519.503576	507.918232	1325.373726	1419.364803	0.006742	2.609423	0.117965	0.031717
0.131072	0.000102	0.409776	0.000281	231616.703393	473.671103	1440.562182	1516.437837	0.006547	3.041271	0.131072	0.034517
0.144179	0.000112	0.450847	0.000309	254828.010801	427.157192	1566.116973	1623.325488	0.006370	3.666372	0.144179	0.037848
0.157286	0.000121	0.496029	0.000340	280365.510110	365.749076	1702.891018	1741.726214	0.006212	4.655900	0.157286	0.040774
0.170394	0.000131	0.545732	0.000375	308463.848331	286.284144	1852.064815	1874.060482	0.006075	6.469324	0.170394	0.044096
0.183501	0.000140	0.600427	0.000414	339376.240943	184.854255	2015.624750	2024.083553	0.005964	10.903859	0.183501	0.047283
0.399814	0.000279	0.660600	0.000457	373385.182474	56.327789	2197.209240	2197.931132	0.005886	39.007553	0.399814	0.094382
0.599721	0.000407	0.726796	0.000505	410803.626448	-106.628597	2403.629071	2405.993011	0.005857	-22.542068	0.599721	0.137626
