MicroRheology Analysis v9.2.8											
10/2/2018 17:21											
											
Correlation Mode:	Cross										
Geometry:	Transmission										
Multi-Tau Duration (s):	120										
Echo Duration (s):	60										
Wavelength (nm):	685										
Temperature (?C):	29.98										
Cuvette Thickness (mm):	10										
Absorption Length (mm):	Inf										
Solvent:	Water										
Solvent Refractive Index:	1.329										
Particle Radius (nm):	465										
Mean Count Rate (kHz):	167										
l* (microns):	968.99										
											
											
											
Lag Time (s)	Mean Square Displacement (micron^2)	Fit Lag Time (s)	Mean Square Displacement Fit (micron^2)	Frequency(rad/s)	G1 (Pa)	G2 (Pa)	G* (Pa)	Complex Viscosity (Pa s)	Loss Tangent (-)	Time (s)	Creep Compliance (1/Pa)
											
5.61E-06	2.09E-06	5.61E-06	1.97E-06	0.131638	-0.760776	2.499778	2.612981	19.849721	-3.285826	5.61E-06	0.000728
6.01E-06	2.12E-06	6.14E-06	2.09E-06	0.144026	-0.818521	2.802011	2.919117	20.268037	-3.423259	6.01E-06	0.00074
6.41E-06	2.18E-06	6.72E-06	2.22E-06	0.157577	-0.873388	3.141161	3.260322	20.690376	-3.596522	6.41E-06	0.000762
7.21E-06	2.27E-06	7.35E-06	2.35E-06	0.172403	-0.923414	3.52098	3.640054	21.113676	-3.813004	7.21E-06	0.000794
8.01E-06	2.39E-06	8.04E-06	2.48E-06	0.188626	-0.966176	3.945171	4.061757	21.533345	-4.083284	8.01E-06	0.000835
8.81E-06	2.63E-06	8.80E-06	2.62E-06	0.206373	-0.998867	4.417818	4.529333	21.947365	-4.42283	8.81E-06	0.000919
9.61E-06	2.78E-06	9.63E-06	2.77E-06	0.22579	-1.01814	4.943028	5.046795	22.351743	-4.854961	9.61E-06	0.000969
1.04E-05	2.92E-06	1.05E-05	2.92E-06	0.247037	-1.020097	5.524728	5.618115	22.741991	-5.415886	1.04E-05	0.00102
1.12E-05	3.01E-06	1.15E-05	3.07E-06	0.270279	-1.000331	6.167125	6.247726	23.115804	-6.165086	1.12E-05	0.001049
1.20E-05	3.13E-06	1.26E-05	3.23E-06	0.295712	-0.953782	6.874067	6.939921	23.468518	-7.207165	1.20E-05	0.001093
1.28E-05	3.22E-06	1.38E-05	3.39E-06	0.323536	-0.874827	7.649246	7.699109	23.796736	-8.743724	1.28E-05	0.001122
1.44E-05	3.41E-06	1.51E-05	3.56E-06	0.353976	-0.757219	8.496347	8.530023	24.09777	-11.220465	1.44E-05	0.001191
1.60E-05	3.56E-06	1.65E-05	3.73E-06	0.387286	-0.594082	9.418135	9.436854	24.366632	-15.853272	1.60E-05	0.001241
1.76E-05	3.71E-06	1.81E-05	3.90E-06	0.423723	-0.378014	10.417472	10.424328	24.601728	-27.558406	1.76E-05	0.001294
1.92E-05	3.85E-06	1.98E-05	4.08E-06	0.463595	-0.101035	11.496062	11.496506	24.79859	-113.783483	1.92E-05	0.001345
2.08E-05	4.03E-06	2.16E-05	4.27E-06	0.507211	0.245306	12.655546	12.657923	24.955919	51.590796	2.08E-05	0.001408
2.24E-05	4.23E-06	2.37E-05	4.46E-06	0.55494	0.669898	13.896211	13.912348	25.069992	20.743762	2.24E-05	0.001475
2.40E-05	4.44E-06	2.59E-05	4.65E-06	0.60716	1.181836	15.217505	15.263328	25.138891	12.876155	2.40E-05	0.001551
2.56E-05	4.66E-06	2.83E-05	4.85E-06	0.664287	1.790486	16.618191	16.714368	25.161372	9.281384	2.56E-05	0.001627
2.88E-05	4.90E-06	3.10E-05	5.05E-06	0.726791	2.505241	18.095593	18.268189	25.135408	7.223095	2.88E-05	0.001711
3.20E-05	5.12E-06	3.39E-05	5.25E-06	0.795168	3.335482	19.64638	19.927511	25.060749	5.890118	3.20E-05	0.001788
3.52E-05	5.36E-06	3.71E-05	5.46E-06	0.869984	4.290371	21.265752	21.694228	24.936344	4.956623	3.52E-05	0.00187
3.84E-05	5.56E-06	4.06E-05	5.68E-06	0.951843	5.378611	22.947743	23.56965	24.762119	4.266481	3.84E-05	0.00194
4.16E-05	5.76E-06	4.44E-05	5.89E-06	1.041405	6.608426	24.685403	25.554655	24.538625	3.735444	4.16E-05	0.002012
4.48E-05	5.95E-06	4.86E-05	6.11E-06	1.139405	7.98707	26.470094	27.648855	24.266039	3.314118	4.48E-05	0.002078
4.80E-05	6.17E-06	5.32E-05	6.34E-06	1.246614	9.520988	28.292637	29.851676	23.946211	2.971607	4.80E-05	0.002154
5.12E-05	6.39E-06	5.82E-05	6.56E-06	1.363903	11.215716	30.142884	32.161868	23.580758	2.687558	5.12E-05	0.002229
5.76E-05	6.66E-06	6.36E-05	6.79E-06	1.492232	13.075498	32.00963	34.577233	23.171491	2.448062	5.76E-05	0.002326
6.40E-05	6.97E-06	6.96E-05	7.02E-06	1.632637	15.103371	33.881186	37.095102	22.720974	2.243286	6.40E-05	0.002431
7.04E-05	7.23E-06	7.62E-05	7.26E-06	1.786273	17.300327	35.744399	39.710998	22.231199	2.066111	7.04E-05	0.002524
7.68E-05	7.46E-06	8.33E-05	7.49E-06	1.954333	19.666398	37.586926	42.421035	21.706148	1.911226	7.68E-05	0.002605
8.32E-05	7.67E-06	9.12E-05	7.73E-06	2.138211	22.200027	39.395639	45.220102	21.14857	1.774576	8.32E-05	0.002678
8.96E-05	7.84E-06	9.97E-05	7.97E-06	2.339399	24.897816	41.157341	48.102266	20.561804	1.65305	8.96E-05	0.002737
9.60E-05	8.04E-06	0.000109	8.21E-06	2.559518	27.755053	42.859372	51.061422	19.949622	1.544201	9.60E-05	0.002807
0.000102	8.27E-06	0.000119	8.46E-06	2.80038	30.764746	44.488654	54.089832	19.315175	1.446092	0.000102	0.002885
0.000115	8.50E-06	0.000131	8.70E-06	3.063873	33.919083	46.033741	57.180499	18.662819	1.357163	0.000115	0.002968
0.000128	8.78E-06	0.000143	8.95E-06	3.352173	37.208065	47.48291	60.324679	17.995693	1.276146	0.000128	0.003065
0.000141	9.06E-06	0.000156	9.19E-06	3.667531	40.621966	48.827027	63.515531	17.318337	1.201986	0.000141	0.003164
0.000154	9.29E-06	0.000171	9.44E-06	4.012646	44.148606	50.056256	66.74375	16.633349	1.133813	0.000154	0.003243
0.000166	9.50E-06	0.000187	9.69E-06	4.390234	47.774638	51.162722	70.000287	15.944544	1.070918	0.000166	0.003315
0.000179	9.66E-06	0.000205	9.93E-06	4.803301	51.486611	52.140203	73.27668	15.255483	1.012694	0.000179	0.003373
0.000192	9.83E-06	0.000224	1.02E-05	5.255218	55.271051	52.983923	76.564909	14.569311	0.95862	0.000192	0.003432
0.000205	1.00E-05	0.000245	1.04E-05	5.749748	59.112673	53.68968	79.855431	13.88851	0.90826	0.000205	0.003506
0.00023	1.03E-05	0.000268	1.07E-05	6.290754	62.996601	54.255683	83.139947	13.216213	0.861248	0.00023	0.003591
0.000256	1.05E-05	0.000293	1.09E-05	6.882618	66.908836	54.681625	86.411067	12.55497	0.817256	0.000256	0.003677
0.000282	1.08E-05	0.000321	1.12E-05	7.530263	70.834326	54.967907	89.660317	11.906664	0.776007	0.000282	0.00376
0.000307	1.10E-05	0.000351	1.14E-05	8.238792	74.758719	55.117003	92.8803	11.273534	0.737265	0.000307	0.003834
0.000333	1.12E-05	0.000384	1.16E-05	9.013898	78.669485	55.132892	96.065205	10.657454	0.700817	0.000333	0.0039
0.000358	1.13E-05	0.00042	1.19E-05	9.862096	82.55303	55.01984	99.207789	10.059504	0.666479	0.000358	0.003959
0.000384	1.15E-05	0.00046	1.21E-05	10.790003	86.397769	54.784282	102.302942	9.481271	0.634094	0.000384	0.004022
0.00041	1.17E-05	0.000503	1.23E-05	11.805272	90.192605	54.433001	105.34542	8.923591	0.60352	0.00041	0.004093
0.000461	1.19E-05	0.000551	1.26E-05	12.916052	93.927846	53.973998	108.331125	8.387325	0.574633	0.000461	0.004171
0.000512	1.22E-05	0.000603	1.28E-05	14.131425	97.5942	53.415719	111.255863	7.87294	0.547325	0.000512	0.004255
0.000563	1.24E-05	0.000659	1.30E-05	15.461011	101.184657	52.767679	114.11732	7.380974	0.521499	0.000563	0.004334
0.000614	1.26E-05	0.000721	1.33E-05	16.915849	104.692312	52.039279	116.912646	6.911427	0.497069	0.000614	0.004405
0.000666	1.28E-05	0.000789	1.35E-05	18.507441	108.112093	51.240779	119.640471	6.464452	0.47396	0.000666	0.004471
0.000717	1.30E-05	0.000863	1.37E-05	20.248754	111.440384	50.382384	122.30022	6.039889	0.452102	0.000717	0.004529
0.000768	1.32E-05	0.000945	1.39E-05	22.154103	114.674073	49.474285	124.891344	5.637391	0.431434	0.000768	0.004591
0.000819	1.33E-05	0.001033	1.41E-05	24.238747	117.811201	48.526901	127.414046	5.256627	0.411904	0.000819	0.004659
0.000922	1.36E-05	0.001131	1.43E-05	26.519403	120.851319	47.550517	129.869523	4.897151	0.393463	0.000922	0.004738
0.001024	1.38E-05	0.001237	1.45E-05	29.014693	123.794477	46.555061	132.259012	4.558346	0.376067	0.001024	0.004825
0.001126	1.41E-05	0.001353	1.47E-05	31.744498	126.642713	45.550375	134.585339	4.239643	0.359676	0.001126	0.00491
0.001229	1.43E-05	0.001481	1.50E-05	34.731724	129.397283	44.545595	136.850162	3.940206	0.344254	0.001229	0.004985
0.001331	1.45E-05	0.00162	1.52E-05	37.999521	132.061535	43.550038	139.05702	3.659441	0.329771	0.001331	0.005053
0.001434	1.46E-05	0.001773	1.54E-05	41.574922	134.638865	42.572112	141.209096	3.396497	0.316195	0.001434	0.005109
0.001536	1.48E-05	0.001939	1.55E-05	45.48651	137.134007	41.620003	143.310713	3.15062	0.303499	0.001536	0.005169
0.001638	1.50E-05	0.002122	1.57E-05	49.766846	139.551	40.701216	145.3653	2.920926	0.291658	0.001638	0.005236
0.001843	1.52E-05	0.002322	1.59E-05	54.449304	141.895232	39.82314	147.37754	2.706693	0.280652	0.001843	0.005315
0.002048	1.55E-05	0.00254	1.61E-05	59.572136	144.172773	38.992358	149.352578	2.507088	0.270456	0.002048	0.005403
0.002253	1.57E-05	0.002779	1.63E-05	65.177966	146.388752	38.21497	151.294582	2.321254	0.261051	0.002253	0.005493
0.002458	1.60E-05	0.00304	1.65E-05	71.310283	148.549825	37.496922	153.209235	2.148487	0.25242	0.002458	0.005572
0.002662	1.62E-05	0.003326	1.67E-05	78.020251	150.66192	36.843366	155.101411	1.987963	0.244543	0.002662	0.005648
0.002867	1.64E-05	0.003639	1.69E-05	85.360972	152.732029	36.25928	156.977094	1.83898	0.237405	0.002867	0.005711
0.003072	1.65E-05	0.003982	1.71E-05	93.393992	154.765761	35.749025	158.840907	1.700762	0.230988	0.003072	0.005777
0.003277	1.68E-05	0.004357	1.73E-05	102.180769	156.770332	35.316933	160.699169	1.572695	0.225278	0.003277	0.005852
0.003686	1.70E-05	0.004767	1.75E-05	111.795271	158.752065	34.966642	162.557326	1.454063	0.220259	0.003686	0.005939
0.004096	1.73E-05	0.005215	1.77E-05	122.314334	160.717365	34.701699	164.421043	1.34425	0.215918	0.004096	0.006036
0.004506	1.76E-05	0.005706	1.79E-05	133.822533	162.672916	34.525369	166.296358	1.242663	0.212238	0.004506	0.006129
0.004915	1.78E-05	0.006243	1.81E-05	146.41447	164.624988	34.44063	168.189012	1.148719	0.209207	0.004915	0.006205
0.005325	1.80E-05	0.00683	1.83E-05	160.191626	166.579784	34.45032	170.104818	1.061883	0.20681	0.005325	0.006277
0.005734	1.82E-05	0.007473	1.86E-05	175.26515	168.543164	34.557073	172.049381	0.981652	0.205034	0.005734	0.006336
0.006144	1.83E-05	0.008176	1.88E-05	191.754481	170.521663	34.763509	174.029133	0.907562	0.203866	0.006144	0.006393
0.006554	1.85E-05	0.008945	1.90E-05	209.797208	172.521155	35.072061	176.049988	0.839144	0.203291	0.006554	0.00646
0.007373	1.87E-05	0.009787	1.93E-05	229.539399	174.546808	35.485021	178.117307	0.775977	0.203298	0.007373	0.006535
0.008192	1.90E-05	0.010707	1.95E-05	251.13424	176.605302	36.004971	180.238149	0.717696	0.203873	0.008192	0.006621
0.009011	1.92E-05	0.011715	1.98E-05	274.767578	178.701021	36.634045	182.417401	0.663897	0.205002	0.009011	0.006715
0.00983	1.95E-05	0.012817	2.01E-05	300.616886	180.840425	37.374861	184.662231	0.614278	0.206673	0.00983	0.006802
0.01065	1.97E-05	0.014023	2.03E-05	328.903788	183.028387	38.229846	186.978372	0.56849	0.208874	0.01065	0.00689
0.011469	1.99E-05	0.015343	2.06E-05	359.851349	185.270282	39.201581	189.37223	0.526251	0.211591	0.011469	0.006962
0.012288	2.01E-05	0.016786	2.10E-05	393.711644	187.570985	40.29267	191.849872	0.487285	0.214813	0.012288	0.007033
0.013107	2.04E-05	0.018366	2.13E-05	430.753563	189.936083	41.506076	194.418286	0.451345	0.218527	0.013107	0.00711
0.014746	2.06E-05	0.020094	2.16E-05	471.284542	192.370717	42.844937	197.084199	0.418185	0.222721	0.014746	0.007201
0.016384	2.09E-05	0.021985	2.20E-05	515.634945	194.879296	44.312254	199.853736	0.387588	0.227383	0.016384	0.007311
0.018022	2.13E-05	0.024053	2.24E-05	564.151875	197.466799	45.911317	202.733781	0.35936	0.232501	0.018022	0.007443
0.019661	2.17E-05	0.026316	2.28E-05	617.225492	200.139294	47.646262	205.732602	0.333318	0.238066	0.019661	0.007574
0.021299	2.21E-05	0.028792	2.32E-05	675.308157	202.900866	49.520895	208.856603	0.309276	0.244064	0.021299	0.007716
0.022938	2.24E-05	0.031502	2.37E-05	738.850254	205.756463	51.53922	212.113208	0.287086	0.250487	0.022938	0.007835
0.024576	2.28E-05	0.034465	2.42E-05	808.361086	208.712247	53.706323	215.511417	0.266603	0.257322	0.024576	0.007947
0.026214	2.31E-05	0.037708	2.47E-05	884.429834	211.772088	56.026803	219.058029	0.247683	0.264562	0.026214	0.008062
0.029491	2.35E-05	0.041256	2.53E-05	967.638386	214.942682	58.506427	222.76301	0.230213	0.272195	0.029491	0.008201
0.032768	2.40E-05	0.045138	2.59E-05	1058.698582	218.227759	61.150505	226.633491	0.214068	0.280214	0.032768	0.008369
0.036045	2.45E-05	0.049386	2.65E-05	1158.300568	221.634153	63.965549	230.680058	0.199154	0.288609	0.036045	0.008565
0.039322	2.51E-05	0.054032	2.72E-05	1267.287777	225.167016	66.958411	234.911928	0.185366	0.297372	0.039322	0.008755
0.042598	2.56E-05	0.059116	2.79E-05	1386.52937	228.832596	70.136513	239.339691	0.172618	0.306497	0.042598	0.008949
0.045875	2.60E-05	0.064679	2.87E-05	1517.005876	232.635786	73.507201	243.97278	0.160825	0.315975	0.045875	0.009084
0.049152	2.64E-05	0.070764	2.95E-05	1659.734366	236.583692	77.079152	248.823309	0.149918	0.325801	0.049152	0.00922
0.052429	2.69E-05	0.077423	3.04E-05	1815.900624	240.682617	80.861726	253.903015	0.139822	0.335968	0.052429	0.009392
0.058982	2.76E-05	0.084708	3.14E-05	1986.768203	244.938907	84.864587	259.223969	0.130475	0.346472	0.058982	0.009622
0.065536	2.85E-05	0.092678	3.24E-05	2173.708468	249.359462	89.098273	264.799251	0.121819	0.357309	0.065536	0.009933
0.07209	2.95E-05	0.101398	3.35E-05	2378.233687	253.95122	93.574089	270.642444	0.1138	0.368473	0.07209	0.010292
0.078643	3.04E-05	0.11094	3.47E-05	2601.988073	258.72276	98.305079	276.769498	0.106368	0.379963	0.078643	0.010608
0.085197	3.13E-05	0.121377	3.60E-05	2846.83827	263.680329	103.303941	283.194315	0.099477	0.391777	0.085197	0.010942
0.09175	3.20E-05	0.132797	3.74E-05	3114.698289	268.83277	108.585102	289.934101	0.093086	0.403913	0.09175	0.011186
0.098304	3.27E-05	0.145294	3.89E-05	3407.769792	274.188282	114.16415	297.006174	0.087156	0.416371	0.098304	0.011429
0.104858	3.37E-05	0.158963	4.05E-05	3728.419263	279.755627	120.057778	304.429106	0.081651	0.429152	0.104858	0.011758
0.117965	3.50E-05	0.173921	4.23E-05	4079.244504	285.543322	126.283604	312.221936	0.076539	0.442257	0.117965	0.012205
0.131072	3.66E-05	0.190287	4.41E-05	4463.050303	291.561712	132.861546	320.406651	0.071791	0.455689	0.131072	0.012769
0.144179	3.85E-05	0.20819	4.62E-05	4882.995699	297.820236	139.812621	329.005261	0.067378	0.469453	0.144179	0.013435
0.157286	3.85E-05	0.227778	4.84E-05	5342.463436	304.328584	147.159009	338.040916	0.063274	0.483553	0.157286	0.013424
0.170394	4.13E-05	0.249212	5.08E-05	5845.133958	311.097492	154.925126	347.539126	0.059458	0.497995	0.170394	0.01442
0.183501	4.93E-05	0.272663	5.34E-05	6395.078308	318.138551	163.137975	357.527812	0.055907	0.512789	0.183501	0.017217
0.399815	6.33E-05	0.298314	5.63E-05	6996.794292	325.463511	171.826767	368.036594	0.052601	0.527945	0.399815	0.022079
0.599722	8.39E-05	0.326384	5.94E-05	7655.194968	333.082077	181.020979	379.094005	0.049521	0.543473	0.599722	0.029282
0.799629	0.000113	0.357094	6.27E-05	8375.44469	341.007726	190.754593	390.734672	0.046652	0.559385	0.799629	0.039444
0.999537	0.000132	0.390699	6.64E-05	9163.462165	349.253776	201.065135	402.99552	0.043979	0.575699	0.999537	0.046119
1.19944	0.000157	0.42746	7.05E-05	10025.72165	357.832291	211.991796	415.914018	0.041485	0.592433	1.19944	0.054808
1.39935	0.000181	0.467681	7.49E-05	10969.15735	366.754197	223.575177	429.52823	0.039158	0.609605	1.39935	0.063336
1.59926	0.000204	0.511684	7.97E-05	12001.17893	376.035773	235.863554	443.885705	0.036987	0.627237	1.59926	0.071333
1.79917	0.000233	0.559825	8.49E-05	13130.40894	385.688639	248.906582	459.031821	0.034959	0.645356	1.79917	0.081161
1.99907	0.000258	0.612506	9.07E-05	14365.83041	395.728052	262.760071	475.019522	0.033066	0.663992	1.99907	0.089884
2.19898	0.000283	0.670137	9.71E-05	15717.61231	406.166284	277.48287	491.902219	0.031296	0.683176	2.19898	0.098816
2.39889	0.000311	0.73319	0.000104	17196.57507	417.016827	293.139359	509.738872	0.029642	0.702944	2.39889	0.108719
2.5988	0.000337	0.802173	0.000112	18814.67065	428.292924	309.800035	528.593313	0.028095	0.723337	2.5988	0.117556
2.7987	0.000366	0.877651	0.00012	20584.99428	440.005741	327.539987	548.532128	0.026647	0.744399	2.7987	0.127838
2.99861	0.000393	0.960241	0.00013	22521.6395	452.170231	346.445291	569.633442	0.025293	0.766183	2.99861	0.137029
3.19852	0.000417	1.050593	0.00014	24640.63124	464.798516	366.609451	591.979856	0.024025	0.788749	3.19852	0.145571
3.39843	0.000446	1.149446	0.000151	26959.34269	477.897509	388.129341	615.654461	0.022836	0.81216	3.39843	0.155777
3.59833	0.000477	1.257596	0.000164	29496.11103	491.476574	411.113681	640.752434	0.021723	0.836487	3.59833	0.166413
3.79824	0.000504	1.375911	0.000178	32271.51907	505.541158	435.680431	667.374933	0.02068	0.86181	3.79824	0.175792
3.99815	0.000535	1.505374	0.000194	35307.84806	520.09876	461.963726	695.638703	0.019702	0.888223	3.99815	0.186891
4.19805	0.000561	1.647012	0.000211	38630.274	535.143646	490.099324	725.655614	0.018785	0.915828	4.19805	0.195913
4.39796	0.000593	1.801996	0.00023	42264.56817	550.680042	520.249645	757.567292	0.017924	0.94474	4.39796	0.206879
4.59787	0.000621	1.971565	0.000252	46241.29479	566.697938	552.585805	791.51603	0.017117	0.975098	4.59787	0.216664
4.79778	0.000647	2.157055	0.000275	50592.47389	583.181578	587.291506	827.654557	0.016359	1.007047	4.79778	0.225939
4.99768	0.00069	2.36003	0.000302	55352.77894	600.11397	624.575659	866.159068	0.015648	1.040762	4.99768	0.241018
5.19759	0.000718	2.582072	0.000331	60561.34595	617.464139	664.661963	907.214135	0.01498	1.076438	5.19759	0.250445
5.3975	0.000758	2.825053	0.000364	66259.91018	635.19163	707.793692	951.020671	0.014353	1.114299	5.3975	0.264477
5.59741	0.000801	3.090843	0.000401	72493.8637	653.250584	754.247815	997.810649	0.013764	1.154607	5.59741	0.279479
5.79731	0.000833	3.381669	0.000443	79314.3762	671.581737	804.333935	1047.843074	0.013211	1.197671	5.79731	0.290589
5.99722	0.000865	3.699875	0.000489	86777.8947	690.097176	858.371605	1101.379101	0.012692	1.243842	5.99722	0.301968
6.19713	0.000901	4.047976	0.00054	94942.22324	708.715024	916.748279	1158.751221	0.012205	1.293536	6.19713	0.314364
6.39703	0.000907	4.428899	0.000598	103876.2395	727.317192	979.878627	1220.30833	0.011748	1.347251	6.39703	0.316579
6.59694	0.000929	4.845607	0.000663	113650.8354	745.774441	1048.233638	1286.457647	0.011319	1.405564	6.59694	0.324389
6.79685	0.000975	5.301486	0.000735	124343.1427	763.964259	1122.405023	1357.731352	0.010919	1.469185	6.79685	0.340306
6.99676	0.001024	5.800375	0.000816	136043.467	781.744292	1203.085686	1434.761063	0.010546	1.538976	6.99676	0.357311
7.19667	0.001059	6.346115	0.000907	148844.6333	799.00494	1291.171657	1518.398216	0.010201	1.615975	7.19667	0.369542
7.39657	0.001044	6.943208	0.001009	162849.0979	815.699459	1387.892502	1609.848193	0.009886	1.701475	7.39657	0.364463
