MicroRheology Analysis v9.2.8													
10/2/2018 17:17													
													
Correlation Mode:	Cross												
Geometry:	Transmission												
Multi-Tau Duration (s):	120												
Echo Duration (s):	60												
Wavelength (nm):	685												
Temperature (°C):	40												
Cuvette Thickness (mm):	10												
Absorption Length (mm):	Inf												
Solvent:	Water												
Solvent Refractive Index:	1.328												
Particle Radius (nm):	465												
Mean Count Rate (kHz):	173.2												
l* (microns):	1008.21												
													
												tau	
												0.055	
Lag Time (s)	Mean Square Displacement (micron^2)	Fit Lag Time (s)	Mean Square Displacement Fit (micron^2)	Frequency(rad/s)	G1 (Pa)	G2 (Pa)	G* (Pa)	Complex Viscosity (Pa s)	Loss Tangent (-)	Time (s)	Creep Compliance (1/Pa)	G1=G2*freq*tau	G*
													
4.01E-06	2.16E-06	4.01E-06	2.07E-06	0.625285	0.091067023	2.648015	2.697648	4.314267	-5.140837	4.01E-06	0.000729	0.091067023	2.649580465
4.41E-06	2.22E-06	4.43E-06	2.24E-06	0.689972	0.111994026	2.951214	3.011785	4.365082	-4.910605	4.41E-06	0.000749	0.111994026	2.953338236
4.81E-06	2.31E-06	4.89E-06	2.40E-06	0.761339	0.138064107	3.29716	3.367836	4.423568	-4.804008	4.81E-06	0.000779	0.138064107	3.300049358
5.21E-06	2.42E-06	5.39E-06	2.58E-06	0.840106	0.170557824	3.691262	3.770522	4.488152	-4.799854	5.21E-06	0.000819	0.170557824	3.695200282
5.61E-06	2.60E-06	5.95E-06	2.76E-06	0.927015	0.211051285	4.139411	4.225045	4.557689	-4.89098	5.61E-06	0.000877	0.211051285	4.14478782
6.01E-06	2.83E-06	6.56E-06	2.94E-06	1.022914	0.261484851	4.647771	4.736922	4.630812	-5.08126	6.01E-06	0.000957	0.261484851	4.655120793
6.41E-06	2.99E-06	7.24E-06	3.13E-06	1.128727	0.324231221	5.222798	5.31205	4.70623	-5.386152	6.41E-06	0.001012	0.324231221	5.232852457
7.21E-06	3.18E-06	7.99E-06	3.33E-06	1.245486	0.402181192	5.87111	5.956652	4.782593	-5.836859	7.21E-06	0.001073	0.402181192	5.884868932
8.01E-06	3.34E-06	8.82E-06	3.53E-06	1.374332	0.498824691	6.599235	6.677104	4.858435	-6.490429	8.01E-06	0.001128	0.498824691	6.618060793
8.81E-06	3.61E-06	9.73E-06	3.74E-06	1.516507	0.618348943	7.413555	7.479988	4.932378	-7.453038	8.81E-06	0.001218	0.618348943	7.439297894
9.61E-06	3.74E-06	1.07E-05	3.95E-06	1.673386	0.765759381	8.320195	8.372101	5.003091	-8.938529	9.61E-06	0.001264	0.765759381	8.355359494
1.04E-05	3.92E-06	1.18E-05	4.17E-06	1.846507	0.946967663	9.324413	9.359965	5.069011	-11.440528	1.04E-05	0.001326	0.946967663	9.372375662
1.12E-05	4.07E-06	1.31E-05	4.39E-06	2.037509	1.168937842	10.431078	10.450454	5.129034	-16.399181	1.12E-05	0.001375	1.168937842	10.49637099
1.20E-05	4.25E-06	1.44E-05	4.62E-06	2.248295	1.439796449	11.643542	11.64979	5.181612	-30.519538	1.20E-05	0.001437	1.439796449	11.73222418
1.28E-05	4.42E-06	1.59E-05	4.85E-06	2.480867	1.768938489	12.964225	12.964281	5.225706	-341.708089	1.28E-05	0.001492	1.768938489	13.08435223
1.44E-05	4.58E-06	1.76E-05	5.09E-06	2.737527	2.167145729	14.39352	14.399327	5.259975	35.200971	1.44E-05	0.001549	2.167145729	14.55575277
1.60E-05	4.71E-06	1.94E-05	5.33E-06	3.02072	2.646651344	15.930286	15.960022	5.283516	16.358767	1.60E-05	0.00159	2.646651344	16.14864624
1.76E-05	4.84E-06	2.14E-05	5.58E-06	3.33321	3.221274992	17.571241	17.650607	5.295378	10.509402	1.76E-05	0.001634	3.221274992	17.86407352
1.92E-05	5.01E-06	2.36E-05	5.83E-06	3.678024	3.906406009	19.310794	19.47432	5.294778	7.667855	1.92E-05	0.001694	3.906406009	19.70194845
2.08E-05	5.25E-06	2.60E-05	6.09E-06	4.058474	4.719114731	21.141465	21.433803	5.281247	5.992576	2.08E-05	0.001773	4.719114731	21.661754
2.24E-05	5.52E-06	2.87E-05	6.35E-06	4.47831	5.678140315	23.053097	23.530235	5.254266	4.889809	2.24E-05	0.001864	5.678140315	23.74208413
2.40E-05	5.79E-06	3.17E-05	6.61E-06	4.941592	6.803774043	25.033427	25.763759	5.213656	4.109986	2.40E-05	0.001956	6.803774043	25.94154599
2.56E-05	6.10E-06	3.50E-05	6.88E-06	5.452843	8.117663051	27.067325	28.132462	5.159229	3.529994	2.56E-05	0.002062	8.117663051	28.25838877
2.88E-05	6.42E-06	3.86E-05	7.16E-06	6.016859	9.642957825	29.139208	30.634678	5.091474	3.082004	2.88E-05	0.002171	9.642957825	30.69332303
3.20E-05	6.73E-06	4.26E-05	7.44E-06	6.639354	11.45783	31.230202	33.265709	5.010383	2.725665	3.20E-05	0.002273	11.40416016	33.24726133
3.52E-05	6.97E-06	4.70E-05	7.73E-06	7.326175	13.681142	33.320925	36.02024	4.91665	2.435537	3.52E-05	0.002356		
3.84E-05	7.16E-06	5.19E-05	8.01E-06	8.083977	16.126015	35.391615	38.892349	4.811042	2.194691	3.84E-05	0.00242		
4.16E-05	7.36E-06	5.72E-05	8.31E-06	8.920325	18.789951	37.42063	41.873211	4.694135	1.991524	4.16E-05	0.002487		
4.48E-05	7.61E-06	6.32E-05	8.60E-06	9.843036	21.668076	39.388035	44.954675	4.567156	1.817791	4.48E-05	0.00257		
4.80E-05	7.89E-06	6.97E-05	8.90E-06	10.861338	24.752089	41.273287	48.126397	4.430982	1.667467	4.80E-05	0.002665		
5.12E-05	8.18E-06	7.69E-05	9.20E-06	11.985007	28.030187	43.056939	51.376954	4.286769	1.536092	5.12E-05	0.002763		
5.76E-05	8.48E-06	8.49E-05	9.51E-06	13.224711	31.48883	44.722083	54.695623	4.135865	1.420252	5.76E-05	0.002866		
6.40E-05	8.80E-06	9.36E-05	9.82E-06	14.592787	35.111758	46.25289	58.070348	3.979387	1.317305	6.40E-05	0.002974		
7.04E-05	9.07E-06	0.000103	1.01E-05	16.102506	38.879928	47.635644	61.488237	3.818551	1.225199	7.04E-05	0.003066		
7.68E-05	9.38E-06	0.000114	1.04E-05	17.768221	42.773451	48.860008	64.93742	3.654695	1.142298	7.68E-05	0.003168		
8.32E-05	9.65E-06	0.000126	1.08E-05	19.606316	46.770956	49.917792	68.405469	3.488951	1.067282	8.32E-05	0.003261		
8.96E-05	9.86E-06	0.000139	1.11E-05	21.634506	50.850574	50.804062	71.88069	3.322502	0.999085	8.96E-05	0.003331		
9.60E-05	1.01E-05	0.000153	1.14E-05	23.872581	54.990188	51.516622	75.35173	3.156413	0.936833	9.60E-05	0.003413		
0.000102	1.04E-05	0.000169	1.17E-05	26.342285	59.16723	52.055919	78.807232	2.991663	0.87981	0.000102	0.003498		
0.000115	1.06E-05	0.000187	1.20E-05	29.067057	63.361457	52.426105	82.238499	2.829268	0.827413	0.000115	0.003577		
0.000128	1.09E-05	0.000206	1.24E-05	32.07425	67.552111	52.632569	85.635711	2.669921	0.77914	0.000128	0.003681		
0.000141	1.12E-05	0.000227	1.27E-05	35.392277	71.720389	52.684024	88.991127	2.514422	0.734575	0.000141	0.003786		
0.000154	1.15E-05	0.000251	1.30E-05	39.053334	75.849874	52.591073	92.298561	2.363398	0.693357	0.000154	0.003875		
0.000166	1.17E-05	0.000277	1.33E-05	43.093491	79.925325	52.365669	95.552189	2.217323	0.655182	0.000166	0.003964		
0.000179	1.19E-05	0.000305	1.37E-05	47.551607	83.933325	52.021461	98.747331	2.076635	0.619795	0.000179	0.004035		
0.000192	1.22E-05	0.000337	1.40E-05	52.470292	87.863732	51.573476	101.881592	1.941701	0.586971	0.000192	0.00411		
0.000205	1.24E-05	0.000372	1.43E-05	57.898163	91.708008	51.036992	104.953005	1.812717	0.556516	0.000205	0.004193		
0.00023	1.27E-05	0.00041	1.46E-05	63.887747	95.459475	50.428002	107.960616	1.689849	0.528266	0.00023	0.004288		
0.000256	1.30E-05	0.000452	1.50E-05	70.496559	99.114475	49.762892	110.905476	1.573204	0.502075	0.000256	0.00439		
0.000282	1.33E-05	0.000499	1.53E-05	77.789959	102.670116	49.057531	113.788375	1.462764	0.477817	0.000282	0.004491		
0.000307	1.35E-05	0.000551	1.56E-05	85.836971	106.126203	48.328085	116.612069	1.35853	0.455383	0.000307	0.004578		
0.000333	1.38E-05	0.000608	1.59E-05	94.715996	109.48462	47.589962	119.380428	1.260404	0.434673	0.000333	0.004662		
0.000358	1.40E-05	0.000671	1.63E-05	104.514487	112.747878	46.857821	122.097253	1.168233	0.415598	0.000358	0.004733		
0.000384	1.42E-05	0.00074	1.66E-05	115.326029	115.920556	46.145958	124.767884	1.081871	0.398083	0.000384	0.00481		
0.00041	1.45E-05	0.000817	1.69E-05	127.25666	119.007826	45.467578	127.397658	1.001108	0.382055	0.00041	0.004897		
0.000461	1.48E-05	0.000901	1.72E-05	140.420756	122.016403	44.835273	129.993093	0.92574	0.367453	0.000461	0.004996		
0.000512	1.51E-05	0.000994	1.75E-05	154.94724	124.953577	44.260564	132.560907	0.855523	0.354216	0.000512	0.005107		
0.000563	1.54E-05	0.001097	1.79E-05	170.977164	127.826991	43.754153	135.107977	0.790211	0.342292	0.000563	0.005218		
0.000614	1.57E-05	0.001211	1.82E-05	188.664409	130.645197	43.32597	137.641953	0.72956	0.331631	0.000614	0.005313		
0.000666	1.60E-05	0.001336	1.85E-05	208.181352	133.41708	42.985005	140.17071	0.673311	0.322185	0.000666	0.005404		
0.000717	1.62E-05	0.001474	1.88E-05	229.718129	136.151361	42.739438	142.701971	0.621205	0.313911	0.000717	0.005484		
0.000768	1.65E-05	0.001627	1.92E-05	253.481184	138.857548	42.596868	145.244317	0.572998	0.306767	0.000768	0.005568		
0.000819	1.68E-05	0.001795	1.95E-05	279.704389	141.544272	42.563978	147.805524	0.528435	0.300711	0.000819	0.005665		
0.000922	1.71E-05	0.001981	1.99E-05	308.636176	144.22151	42.647206	150.394907	0.487289	0.295706	0.000922	0.005776		
0.001024	1.75E-05	0.002185	2.02E-05	340.566509	146.897493	42.852003	153.020155	0.449311	0.291714	0.001024	0.005897		
0.001126	1.78E-05	0.002412	2.06E-05	375.794754	149.582068	43.183881	155.690856	0.414298	0.288697	0.001126	0.006015		
0.001229	1.81E-05	0.002661	2.09E-05	414.675217	152.282849	43.647369	158.414516	0.382021	0.28662	0.001229	0.006117		
0.001331	1.84E-05	0.002936	2.13E-05	457.567379	155.009426	44.247296	161.200947	0.3523	0.285449	0.001331	0.006213		
0.001434	1.86E-05	0.00324	2.17E-05	504.902734	157.770012	44.987868	164.058785	0.324931	0.285148	0.001434	0.006294		
0.001536	1.89E-05	0.003575	2.21E-05	557.137755	160.572363	45.873079	166.996476	0.29974	0.285685	0.001536	0.006382		
0.001638	1.92E-05	0.003945	2.25E-05	614.769556	163.4249	46.907017	170.023429	0.276564	0.287025	0.001638	0.00649		
0.001843	1.96E-05	0.004353	2.29E-05	678.36396	166.33593	48.093787	173.149224	0.255245	0.289136	0.001843	0.006614		
0.002048	2.00E-05	0.004804	2.34E-05	748.548566	169.312334	49.437082	176.382232	0.235632	0.291987	0.002048	0.006752		
0.002253	2.04E-05	0.0053	2.39E-05	825.983285	172.362197	50.941019	179.732341	0.217598	0.295546	0.002253	0.006891		
0.002458	2.08E-05	0.005849	2.44E-05	911.429714	175.492852	52.609694	183.208955	0.201013	0.299783	0.002458	0.007012		
0.002662	2.11E-05	0.006454	2.49E-05	1005.710579	178.711953	54.447481	186.822082	0.185761	0.304666	0.002662	0.007123		
0.002867	2.14E-05	0.007121	2.55E-05	1109.744825	182.027424	56.459191	190.582327	0.171735	0.310169	0.002867	0.007222		
0.003072	2.17E-05	0.007858	2.60E-05	1224.55872	185.445524	58.649213	194.498772	0.158832	0.316261	0.003072	0.007327		
0.003277	2.20E-05	0.008671	2.67E-05	1351.223462	188.975256	61.023269	198.583702	0.146966	0.322917	0.003277	0.007448		
0.003686	2.25E-05	0.009568	2.73E-05	1491.021848	192.622697	63.586505	202.846609	0.136045	0.330109	0.003686	0.007591		
0.004096	2.29E-05	0.010558	2.80E-05	1645.252042	196.396827	66.345381	207.300322	0.125999	0.337813	0.004096	0.007746		
0.004506	2.34E-05	0.01165	2.88E-05	1815.460358	200.304509	69.306257	211.955782	0.11675	0.346004	0.004506	0.007899		
0.004915	2.38E-05	0.012855	2.96E-05	2003.255728	204.354474	72.476542	216.826198	0.108237	0.354661	0.004915	0.008031		
0.005325	2.41E-05	0.014185	3.05E-05	2210.489158	208.554505	75.864034	221.924161	0.100396	0.363761	0.005325	0.008157		
0.005734	2.45E-05	0.015652	3.14E-05	2439.148079	212.91365	79.477623	227.263976	0.093174	0.373286	0.005734	0.008265		
0.006144	2.48E-05	0.017272	3.25E-05	2691.477866	217.440179	83.326667	232.85954	0.086517	0.383217	0.006144	0.008387		
0.006554	2.53E-05	0.019058	3.36E-05	2969.898756	222.143507	87.421717	238.726401	0.080382	0.393537	0.006554	0.008542		
0.007373	2.58E-05	0.02103	3.47E-05	3277.127771	227.033278	91.77453	244.880938	0.074724	0.404234	0.007373	0.008733		
0.008192	2.65E-05	0.023205	3.60E-05	3616.162557	232.11828	96.397246	251.339064	0.069504	0.415294	0.008192	0.00895		
0.009011	2.72E-05	0.025606	3.74E-05	3990.22447	237.41	101.304495	258.120337	0.064688	0.426707	0.009011	0.009178		
0.00983	2.78E-05	0.028255	3.89E-05	4403.031861	242.917547	106.51115	265.242455	0.060241	0.438466	0.00983	0.009385		
0.01065	2.84E-05	0.031178	4.06E-05	4858.489681	248.653153	112.034829	272.727324	0.056134	0.450567	0.01065	0.009585		
0.011469	2.89E-05	0.034403	4.24E-05	5361.110394	254.627074	117.894039	280.595708	0.052339	0.463007	0.011469	0.009764		
0.012288	2.95E-05	0.037962	4.43E-05	5915.690954	260.851719	124.109928	288.871759	0.048831	0.475787	0.012288	0.009963		
0.013107	3.02E-05	0.041889	4.65E-05	6527.665286	267.338722	130.705523	297.580117	0.045588	0.488914	0.013107	0.010197		
0.014746	3.10E-05	0.046222	4.88E-05	7202.935515	274.100494	137.706383	306.747663	0.042586	0.502394	0.014746	0.010478		
0.016384	3.20E-05	0.051004	5.14E-05	7948.045887	281.150504	145.141542	316.404288	0.039809	0.516241	0.016384	0.010797		
0.018022	3.30E-05	0.05628	5.42E-05	8770.304459	288.501117	153.042387	326.580567	0.037237	0.530474	0.018022	0.011141		
0.019661	3.39E-05	0.062102	5.73E-05	9677.634679	296.16503	161.443528	337.309558	0.034855	0.545113	0.019661	0.011469		
0.021299	3.49E-05	0.068527	6.07E-05	10678.77463	304.155217	170.383634	348.627277	0.032647	0.560186	0.021299	0.011809		
0.022938	3.58E-05	0.075616	6.45E-05	11783.38207	312.48619	179.907137	360.574814	0.0306	0.575728	0.022938	0.012107		
0.024576	3.68E-05	0.083438	6.86E-05	13002.32637	321.170895	190.062822	373.19515	0.028702	0.591781	0.024576	0.012432		
0.026214	3.80E-05	0.09207	7.32E-05	14347.44678	330.22087	200.903782	386.533508	0.026941	0.608392	0.026214	0.012828		
0.029491	3.94E-05	0.101595	7.83E-05	15831.63242	339.649076	212.490744	400.641749	0.025306	0.625618	0.029491	0.013322		
0.032768	4.11E-05	0.112104	8.39E-05	17469.39201	349.467341	224.89197	415.576492	0.023789	0.643528	0.032768	0.013901		
0.036045	4.30E-05	0.123701	9.01E-05	19276.75614	359.682149	238.17989	431.394145	0.022379	0.662195	0.036045	0.014531		
0.039322	4.48E-05	0.136497	9.70E-05	21270.71688	370.305318	252.441077	448.165734	0.02107	0.681711	0.039322	0.015128		
0.042598	4.65E-05	0.150617	0.000105	23471.19509	381.341014	267.769449	465.962924	0.019853	0.702178	0.042598	0.015725		
0.045875	4.80E-05	0.1662	0.000113	25899.38581	392.79097	284.269194	484.864641	0.018721	0.723716	0.045875	0.016235		
0.049152	4.98E-05	0.183391	0.000123	28578.67906	404.65308	302.05717	504.958066	0.017669	0.74646	0.049152	0.01682		
0.052429	5.20E-05	0.202364	0.000134	31534.90874	416.92149	321.26583	526.341393	0.016691	0.770567	0.052429	0.017573		
0.058982	5.48E-05	0.223299	0.000146	34796.89274	429.585702	342.046314	549.126175	0.015781	0.796224	0.058982	0.018531		
0.065536	5.82E-05	0.246398	0.000159	38396.96988	442.618858	364.559178	573.423794	0.014934	0.823641	0.065536	0.01968		
0.07209	6.19E-05	0.271885	0.000174	42368.9375	455.991575	388.98997	599.367594	0.014146	0.853064	0.07209	0.020931		
0.078643	6.54E-05	0.300011	0.000191	46751.6616	469.660683	415.548317	627.105701	0.013414	0.884784	0.078643	0.022097		
0.085197	6.89E-05	0.331047	0.00021	51588.14711	483.563573	444.464236	656.796914	0.012732	0.919143	0.085197	0.023295		
0.09175	7.21E-05	0.365293	0.000231	56924.9045	497.618838	475.993971	688.618014	0.012097	0.956543	0.09175	0.02436		
0.098304	7.57E-05	0.403085	0.000255	62813.26707	511.72683	510.432742	722.776544	0.011507	0.997471	0.098304	0.02559		
0.104858	8.05E-05	0.444782	0.000282	69311.89198	525.746903	548.096918	759.486694	0.010958	1.042511	0.104858	0.027187		
0.117965	8.65E-05	0.490795	0.000312	76482.3436	539.508619	589.342146	798.995441	0.010447	1.092368	0.117965	0.029221		
0.131072	9.36E-05	0.541563	0.000347	84393.90793	552.7983	634.569155	841.584205	0.009972	1.147922	0.131072	0.031632		
0.144179	0.000101	0.597591	0.000385	93123.96216	565.346488	684.222216	887.567852	0.009531	1.210271	0.144179	0.034096		
0.157286	0.000109	0.65941	0.000429	102757.5497	576.817964	738.791999	937.300689	0.009121	1.280806	0.157286	0.036774		
0.170394	0.000117	0.727626	0.000477	113387.949	586.801124	798.823999	991.188852	0.008742	1.36132	0.170394	0.039683		
0.183501	0.000125	0.8029	0.000532	125117.9682	594.792622	864.923952	1049.70077	0.00839	1.454161	0.183501	0.042159		
0.399815	0.000261	0.885954	0.000594	138059.7157	600.198858	937.813702	1113.433073	0.008065	1.562505	0.399815	0.088178		
0.599722	0.000392	0.977599	0.000664	152343.8664	602.284926	1018.290164	1183.073113	0.007766	1.690712	0.599722	0.132492		
0.799629	0.000535	1.078731	0.000742	168103.0158	600.21724	1107.367999	1259.57319	0.007493	1.844945	0.799629	0.180768		
0.999536	0.000683	1.190327	0.000829	185492.0414	593.019177	1206.382402	1344.258251	0.007247	2.034306	0.999536	0.230665		
1.19944	0.000824	1.313475	0.000927	204680.9578	579.572457	1317.206222	1439.074864	0.007031	2.272721	1.19944	0.278491		
1.39935	0.000977	1.449334	0.001036	225853.444	558.602002	1442.71082	1547.078119	0.00685	2.582717	1.39935	0.330006		
