MicroRheology Analysis v9.2.8
10/03/18 5:39:08 PM

Correlation Mode:	Cross
Geometry:	Transmission
Multi-Tau Duration (s):	120
Echo Duration (s):	60
Wavelength (nm):	685.0
Temperature (°C):	35.01
Cuvette Thickness (mm):	10.00
Absorption Length (mm):	Inf
Solvent:	Water
Solvent Refractive Index:	1.329
Particle Radius (nm):	465.0
Mean Count Rate (kHz):	167.7
l* (microns):	950.38



Lag Time (s)	Mean Square Displacement (micron^2)	Fit Lag Time (s)	Mean Square Displacement Fit (micron^2)	Frequency(rad/s)	G1 (Pa)	G2 (Pa)	G* (Pa)	Complex Viscosity (Pa s)	Loss Tangent (-)	Time (s)	Creep Compliance (1/Pa)

2.212500E-6	8.716976E-7	2.212514E-6	8.543646E-7	0.714617	1.606908	3.500014	3.851266	5.389271	2.178105	2.212500E-6	0.000299
2.412500E-6	9.763719E-7	2.439121E-6	9.320479E-7	0.787790	1.329667	3.868282	4.090431	5.192283	2.909213	2.412500E-6	0.000335
2.612500E-6	1.048690E-6	2.688906E-6	1.013259E-6	0.868480	1.047916	4.241723	4.369249	5.030918	4.047771	2.612500E-6	0.000360
2.812500E-6	1.088675E-6	2.964257E-6	1.097969E-6	0.957414	0.762808	4.631114	4.693516	4.902284	6.071143	2.812500E-6	0.000374
3.012500E-6	1.051378E-6	3.267814E-6	1.186152E-6	1.055470	0.474406	5.047155	5.069402	4.802979	10.638884	3.012500E-6	0.000361
3.212500E-6	1.028021E-6	3.602487E-6	1.277784E-6	1.163560	0.182334	5.500822	5.503843	4.730174	30.168991	3.212500E-6	0.000353
3.612500E-6	1.211368E-6	3.971441E-6	1.372834E-6	1.282707	-0.114018	6.003672	6.004755	4.681315	-52.655313	3.612500E-6	0.000416
4.012500E-6	1.370613E-6	4.378167E-6	1.471272E-6	1.414076	-0.415052	6.567635	6.580737	4.653735	-15.823646	4.012500E-6	0.000471
4.412500E-6	1.472790E-6	4.826514E-6	1.573074E-6	1.558896	-0.720618	7.205537	7.241481	4.645261	-9.999107	4.412500E-6	0.000506
4.812500E-6	1.565597E-6	5.320840E-6	1.678244E-6	1.718542	-1.029792	7.931216	7.997791	4.653824	-7.701765	4.812500E-6	0.000538
5.212500E-6	1.627135E-6	5.865718E-6	1.786738E-6	1.894540	-1.340494	8.759546	8.861522	4.677402	-6.534568	5.212500E-6	0.000559
5.612500E-6	1.706845E-6	6.466385E-6	1.898554E-6	2.088554	-1.649186	9.706776	9.845878	4.714209	-5.885798	5.612500E-6	0.000586
6.012500E-6	1.845955E-6	7.128631E-6	2.013691E-6	2.302461	-1.950407	10.790047	10.964908	4.762256	-5.532202	6.012500E-6	0.000634
6.412500E-6	1.910305E-6	7.858681E-6	2.132121E-6	2.538257	-2.236447	12.027763	12.233919	4.819811	-5.378067	6.412500E-6	0.000656
7.212500E-6	2.022015E-6	8.663566E-6	2.253840E-6	2.798173	-2.497037	13.439852	13.669850	4.885277	-5.382320	7.212500E-6	0.000694
8.012500E-6	2.190260E-6	9.550724E-6	2.378797E-6	3.084781	-2.718576	15.045722	15.289356	4.956383	-5.534413	8.012500E-6	0.000752
8.812500E-6	2.386632E-6	1.052880E-5	2.506998E-6	3.400648	-2.884233	16.866502	17.111332	5.031785	-5.847829	8.812500E-6	0.000819
9.612500E-6	2.498746E-6	1.160714E-5	2.638417E-6	3.748910	-2.973151	18.922459	19.154610	5.109381	-6.364445	9.612500E-6	0.000858
1.041250E-5	2.626359E-6	1.279590E-5	2.773002E-6	4.132869	-2.960321	21.232575	21.437951	5.187183	-7.172389	1.041250E-5	0.000902
1.121250E-5	2.700045E-6	1.410631E-5	2.910701E-6	4.556086	-2.816536	23.815411	23.981382	5.263593	-8.455569	1.121250E-5	0.000927
1.201250E-5	2.799180E-6	1.555080E-5	3.051459E-6	5.022733	-2.508038	26.685171	26.802772	5.336292	-10.639857	1.201250E-5	0.000961
1.281250E-5	2.843851E-6	1.714332E-5	3.195227E-6	5.537042	-1.997076	29.854837	29.921558	5.403889	-14.949276	1.281250E-5	0.000976
1.441250E-5	2.920853E-6	1.889919E-5	3.341941E-6	6.104151	-1.241756	33.330687	33.353810	5.464119	-26.841566	1.441250E-5	0.001003
1.601250E-5	3.000948E-6	2.083473E-5	3.491476E-6	6.729285	-0.197238	37.114258	37.114782	5.515413	-188.169473	1.601250E-5	0.001030
1.761250E-5	3.109279E-6	2.296808E-5	3.643711E-6	7.418400	1.183984	41.201037	41.218045	5.556190	34.798635	1.761250E-5	0.001068
1.921250E-5	3.216439E-6	2.532058E-5	3.798595E-6	8.178180	2.950528	45.577326	45.672730	5.584706	15.447174	1.921250E-5	0.001104
2.081250E-5	3.325468E-6	2.791338E-5	3.955915E-6	9.015644	5.150981	50.222977	50.486434	5.599870	9.750178	2.081250E-5	0.001142
2.241250E-5	3.440052E-6	3.077212E-5	4.115576E-6	9.938913	7.832771	55.108891	55.662754	5.600487	7.035682	2.241250E-5	0.001181
2.401250E-5	3.602022E-6	3.392378E-5	4.277397E-6	10.956887	11.039258	60.195095	61.198976	5.585435	5.452820	2.401250E-5	0.001237
2.561250E-5	3.823474E-6	3.739768E-5	4.441162E-6	12.078910	14.809223	65.435822	67.090684	5.554366	4.418586	2.561250E-5	0.001313
2.881250E-5	4.026098E-6	4.122762E-5	4.606707E-6	13.315931	19.174814	70.775750	73.327213	5.506728	3.691079	2.881250E-5	0.001382
3.201250E-5	4.206434E-6	4.544993E-5	4.773811E-6	14.679666	24.158943	76.152065	79.892375	5.442384	3.152127	3.201250E-5	0.001444
3.521250E-5	4.340012E-6	5.010445E-5	4.942233E-6	16.182873	29.776069	81.498988	86.768078	5.361723	2.737063	3.521250E-5	0.001490
3.841250E-5	4.449399E-6	5.523579E-5	5.111741E-6	17.840383	36.028053	86.742877	93.927351	5.264873	2.407648	3.841250E-5	0.001528
4.161250E-5	4.596574E-6	6.089174E-5	5.282050E-6	19.667433	42.904814	91.810457	101.340925	5.152728	2.139864	4.161250E-5	0.001578
4.481250E-5	4.783766E-6	6.712857E-5	5.452968E-6	21.681388	50.385600	96.629398	108.976829	5.026285	1.917798	4.481250E-5	0.001643
4.801250E-5	4.945732E-6	7.400257E-5	5.624135E-6	23.901789	58.436883	101.128249	116.798083	4.886583	1.730555	4.801250E-5	0.001698
5.121250E-5	5.084504E-6	8.158167E-5	5.795337E-6	26.349711	67.012278	105.239783	124.764007	4.734929	1.570455	5.121250E-5	0.001746
5.761250E-5	5.238149E-6	8.993653E-5	5.966254E-6	29.048033	76.057001	108.905689	132.834922	4.572940	1.431896	5.761250E-5	0.001799
6.401250E-5	5.389664E-6	9.914720E-5	6.136614E-6	32.023089	85.505459	112.073427	140.966793	4.402036	1.310717	6.401250E-5	0.001851
7.041250E-5	5.567764E-6	0.000109	6.306110E-6	35.302689	95.284248	114.701716	149.115967	4.223927	1.203785	7.041250E-5	0.001912
7.681250E-5	5.750512E-6	0.000120	6.474491E-6	38.917700	105.316942	116.761482	157.241540	4.040361	1.108668	7.681250E-5	0.001974
8.321250E-5	5.904296E-6	0.000133	6.641483E-6	42.903209	115.523181	118.233871	165.302310	3.852913	1.023464	8.321250E-5	0.002027
8.961250E-5	6.031095E-6	0.000146	6.806821E-6	47.297166	125.820361	119.112186	173.258408	3.663188	0.946685	8.961250E-5	0.002071
9.601250E-5	6.186629E-6	0.000161	6.970245E-6	52.140890	136.128634	119.402648	181.074563	3.472794	0.877131	9.601250E-5	0.002124
0.000102	6.342516E-6	0.000178	7.131526E-6	57.480981	146.370172	119.121614	188.717212	3.283124	0.813838	0.000102	0.002178
0.000115	6.491337E-6	0.000196	7.290453E-6	63.367596	156.473004	118.296891	196.157986	3.095557	0.756021	0.000115	0.002229
0.000128	6.636969E-6	0.000216	7.446845E-6	69.856835	166.372788	116.965168	203.373438	2.911289	0.703031	0.000128	0.002279
0.000141	6.765375E-6	0.000238	7.600554E-6	77.011155	176.011249	115.170277	210.342940	2.731331	0.654335	0.000141	0.002323
0.000154	6.892850E-6	0.000263	7.751428E-6	84.897660	185.339719	112.963320	217.051890	2.556630	0.609493	0.000154	0.002367
0.000166	7.026444E-6	0.000290	7.899381E-6	93.591458	194.320516	110.399663	223.491719	2.387950	0.568132	0.000166	0.002413
0.000179	7.144372E-6	0.000319	8.044336E-6	103.177239	202.921381	107.536870	229.654665	2.225827	0.529944	0.000179	0.002453
0.000192	7.263708E-6	0.000352	8.186304E-6	113.742798	211.123061	104.436124	235.541612	2.070827	0.494669	0.000192	0.002494
0.000205	7.390088E-6	0.000388	8.325284E-6	125.390933	218.914495	101.156915	241.156127	1.923234	0.462084	0.000205	0.002537
0.000230	7.507537E-6	0.000428	8.461340E-6	138.232917	226.291402	97.758459	246.504594	1.783255	0.432003	0.000230	0.002578
0.000256	7.648331E-6	0.000472	8.594587E-6	152.388703	233.260031	94.298370	251.599731	1.651039	0.404263	0.000256	0.002626
0.000282	7.793013E-6	0.000520	8.725183E-6	167.997217	239.828979	90.830476	256.452948	1.526531	0.378730	0.000282	0.002676
0.000307	7.906535E-6	0.000573	8.853294E-6	185.199362	246.018370	87.406632	261.084197	1.409747	0.355285	0.000307	0.002715
0.000333	8.013184E-6	0.000632	8.979204E-6	204.168102	251.848231	84.072659	265.510345	1.300450	0.333823	0.000333	0.002751
0.000358	8.116836E-6	0.000697	9.103227E-6	225.076383	257.345062	80.872270	269.753230	1.198496	0.314256	0.000358	0.002787
0.000384	8.206474E-6	0.000768	9.225685E-6	248.125474	262.538209	77.843530	273.835583	1.103617	0.296504	0.000384	0.002818
0.000410	8.317228E-6	0.000847	9.347010E-6	273.535965	267.459181	75.020446	277.781354	1.015520	0.280493	0.000410	0.002856
0.000461	8.445357E-6	0.000934	9.467641E-6	301.552215	272.139412	72.433054	281.613932	0.933881	0.266162	0.000461	0.002900
0.000512	8.585497E-6	0.001029	9.588110E-6	332.434725	276.612189	70.107788	285.358380	0.858389	0.253452	0.000512	0.002948
0.000563	8.721861E-6	0.001135	9.708975E-6	366.477697	280.910851	68.066921	289.039810	0.788697	0.242308	0.000563	0.002995
0.000614	8.836161E-6	0.001251	9.830866E-6	404.004850	285.069001	66.329412	292.684004	0.724457	0.232678	0.000614	0.003034
0.000666	8.939893E-6	0.001379	9.954482E-6	445.380394	289.118220	64.911208	296.315389	0.665309	0.224514	0.000666	0.003070
0.000717	9.025409E-6	0.001520	1.008058E-5	490.994435	293.088936	63.825985	299.958132	0.610920	0.217770	0.000717	0.003099
0.000768	9.120218E-6	0.001676	1.020992E-5	541.275503	297.011464	63.085093	303.637182	0.560966	0.212400	0.000768	0.003131
0.000819	9.227158E-6	0.001847	1.034343E-5	596.712078	300.912909	62.697740	307.375316	0.515115	0.208358	0.000819	0.003168
0.000922	9.350702E-6	0.002037	1.048201E-5	657.818033	304.820785	62.671995	311.196867	0.473074	0.205603	0.000922	0.003211
0.001024	9.491421E-6	0.002245	1.062670E-5	725.192379	308.758825	63.014267	315.123484	0.434538	0.204089	0.001024	0.003259
0.001126	9.638985E-6	0.002475	1.077857E-5	799.457575	312.750467	63.730342	319.177711	0.399243	0.203774	0.001126	0.003310
0.001229	9.765667E-6	0.002729	1.093877E-5	881.323657	316.817659	64.825291	323.381737	0.366927	0.204614	0.001229	0.003353
0.001331	9.895986E-6	0.003008	1.110861E-5	971.576555	320.980611	66.303825	327.757151	0.337346	0.206566	0.001331	0.003398
0.001434	9.990950E-6	0.003316	1.128943E-5	1071.078228	325.257653	68.170331	332.324743	0.310271	0.209589	0.001434	0.003430
0.001536	1.009018E-5	0.003656	1.148271E-5	1180.765536	329.666831	70.429450	337.106107	0.285498	0.213638	0.001536	0.003465
0.001638	1.021421E-5	0.004030	1.169000E-5	1301.697812	334.223737	73.085662	342.121354	0.262827	0.218673	0.001638	0.003507
0.001843	1.036068E-5	0.004443	1.191302E-5	1435.003522	338.944656	76.144208	347.392315	0.242085	0.224651	0.001843	0.003557
0.002048	1.053361E-5	0.004898	1.215366E-5	1581.977830	343.843070	79.610299	352.938884	0.223100	0.231531	0.002048	0.003617
0.002253	1.071577E-5	0.005400	1.241396E-5	1743.982710	348.933274	83.489912	358.782657	0.205726	0.239272	0.002253	0.003679
0.002458	1.087742E-5	0.005952	1.269604E-5	1922.566618	354.230040	87.790726	364.946753	0.189823	0.247835	0.002458	0.003735
0.002662	1.104243E-5	0.006562	1.300247E-5	2119.479266	359.745014	92.520215	371.451835	0.175256	0.257183	0.002662	0.003791
0.002867	1.117750E-5	0.007234	1.333576E-5	2336.541257	365.491339	97.686826	378.320810	0.161915	0.267275	0.002867	0.003838
0.003072	1.131289E-5	0.007975	1.369893E-5	2575.820546	371.482287	103.300759	385.577666	0.149691	0.278077	0.003072	0.003884
0.003277	1.147618E-5	0.008792	1.409515E-5	2839.608772	377.730843	109.373371	393.246900	0.138486	0.289554	0.003277	0.003940
0.003686	1.166784E-5	0.009692	1.452797E-5	3130.416588	384.249405	115.916743	401.353082	0.128211	0.301671	0.003686	0.004006
0.004096	1.189466E-5	0.010685	1.500146E-5	3450.968505	391.053065	122.945687	409.924556	0.118785	0.314396	0.004096	0.004084
0.004506	1.214146E-5	0.011779	1.551986E-5	3804.385424	398.155045	130.476122	418.988613	0.110133	0.327702	0.004506	0.004169
0.004915	1.235890E-5	0.012985	1.608817E-5	4193.995542	405.570501	138.525890	428.575377	0.102188	0.341558	0.004915	0.004243
0.005325	1.257468E-5	0.014315	1.671187E-5	4623.534179	413.313548	147.114170	438.714791	0.094887	0.355938	0.005325	0.004318
0.005734	1.274629E-5	0.015781	1.739700E-5	5097.023396	421.400907	156.263031	449.440607	0.088177	0.370818	0.005734	0.004377
0.006144	1.292335E-5	0.017397	1.815052E-5	5618.999431	429.849654	165.997461	460.788327	0.082005	0.386176	0.006144	0.004437
0.006554	1.314197E-5	0.019179	1.898016E-5	6194.447485	438.677462	176.344894	472.795344	0.076326	0.401992	0.006554	0.004512
0.007373	1.342718E-5	0.021143	1.989451E-5	6828.844790	447.902996	187.335747	485.501572	0.071096	0.418251	0.007373	0.004610
0.008192	1.377899E-5	0.023308	2.090348E-5	7528.233641	457.545205	199.003319	498.948831	0.066277	0.434937	0.008192	0.004731
0.009011	1.419016E-5	0.025695	2.201800E-5	8299.226230	467.624340	211.384623	513.182211	0.061835	0.452039	0.009011	0.004872
0.009830	1.458990E-5	0.028326	2.325053E-5	9149.129664	478.161741	224.521065	528.250281	0.057738	0.469550	0.009830	0.005010
0.010650	1.501988E-5	0.031227	2.461549E-5	10086.013184	489.181667	238.460465	544.207769	0.053957	0.487468	0.010650	0.005157
0.011469	1.537297E-5	0.034426	2.612884E-5	11118.952678	500.705471	253.253589	561.109035	0.050464	0.505794	0.011469	0.005278
0.012288	1.575706E-5	0.037951	2.780847E-5	12257.655107	512.758116	268.957915	579.015756	0.047237	0.524532	0.012288	0.005410
0.013107	1.622798E-5	0.041838	2.967545E-5	13513.043593	525.361010	285.634742	597.989461	0.044253	0.543692	0.013107	0.005572
0.014746	1.682152E-5	0.046123	3.175295E-5	14896.787237	538.544683	303.358725	618.107509	0.041493	0.563294	0.014746	0.005776
0.016384	1.753057E-5	0.050845	3.406750E-5	16422.589544	552.325841	322.203416	639.436374	0.038936	0.583357	0.016384	0.006019
0.018022	1.833623E-5	0.056053	3.664982E-5	18104.204875	566.736608	342.260252	662.066812	0.036570	0.603914	0.018022	0.006296
0.019661	1.909437E-5	0.061794	3.953454E-5	19958.305781	581.797274	363.626202	686.084603	0.034376	0.625005	0.019661	0.006556
0.021299	1.990515E-5	0.068121	4.275980E-5	22002.235114	597.532359	386.410754	711.588498	0.032342	0.646678	0.021299	0.006835
0.022938	2.056363E-5	0.075098	4.637118E-5	24255.582795	613.961521	410.734781	738.682482	0.030454	0.668991	0.022938	0.007061
0.024576	2.127329E-5	0.082789	5.041877E-5	26739.628189	631.102533	436.732973	767.480356	0.028702	0.692016	0.024576	0.007304
0.026214	2.216976E-5	0.091267	5.495964E-5	29477.848438	648.975374	464.562314	798.114765	0.027075	0.715840	0.026214	0.007612
0.029491	2.334155E-5	0.100615	6.006006E-5	32496.951935	667.585580	494.390316	830.717937	0.025563	0.740565	0.029491	0.008014
0.032768	2.479878E-5	0.110918	6.579197E-5	35825.114861	686.935479	526.403914	865.437134	0.024157	0.766308	0.032768	0.008515
0.036045	2.648587E-5	0.122277	7.223879E-5	39493.573540	707.030758	560.826736	902.451728	0.022851	0.793214	0.036045	0.009094
0.039322	2.809952E-5	0.134800	7.949547E-5	43538.682370	727.842675	597.885832	941.924853	0.021634	0.821449	0.039322	0.009648
0.042598	2.981139E-5	0.148604	8.766515E-5	47996.780490	749.358550	637.861048	984.075685	0.020503	0.851209	0.042598	0.010236
0.045875	3.120490E-5	0.163823	9.686668E-5	52912.320871	771.530101	681.054614	1029.122968	0.019450	0.882732	0.045875	0.010714
0.049152	3.276958E-5	0.180602	0.000107	58331.760541	794.286938	727.795435	1077.301227	0.018469	0.916288	0.049152	0.011252
0.052429	3.483600E-5	0.199095	0.000119	64305.358106	817.542796	778.462961	1128.884762	0.017555	0.952198	0.052429	0.011961
0.058982	3.758031E-5	0.219487	0.000132	70890.251849	841.180014	833.488421	1184.181896	0.016704	0.990856	0.058982	0.012903
0.065536	4.103147E-5	0.241963	0.000147	78150.047616	865.035873	893.348136	1243.526418	0.015912	1.032730	0.065536	0.014088
0.072090	4.498326E-5	0.266744	0.000163	86153.842683	888.898840	958.571464	1307.287421	0.015174	1.078381	0.072090	0.015445
0.078643	4.872528E-5	0.294062	0.000182	94977.544109	912.494966	1029.744153	1375.870664	0.014486	1.128493	0.078643	0.016730
0.085197	5.262540E-5	0.324172	0.000203	104704.106335	935.480838	1107.523570	1449.735443	0.013846	1.183908	0.085197	0.018069
0.091750	5.582752E-5	0.357376	0.000226	115425.912882	957.430497	1192.659837	1529.415131	0.013250	1.245688	0.091750	0.019169
0.098304	5.932822E-5	0.393971	0.000252	127247.823996	977.783548	1285.947522	1615.463307	0.012695	1.315166	0.098304	0.020371
0.104858	6.383085E-5	0.434318	0.000281	140279.396251	995.865719	1388.285037	1708.532667	0.012179	1.394048	0.104858	0.021917
0.117965	6.971178E-5	0.478800	0.000313	154645.916657	1010.823623	1500.641873	1809.334250	0.011700	1.484573	0.117965	0.023936
0.131072	7.710258E-5	0.527833	0.000349	170482.127308	1021.619505	1624.098589	1918.698163	0.011255	1.589729	0.131072	0.026474
0.144179	8.476114E-5	0.581889	0.000388	187940.245090	1026.972638	1759.843541	2037.577505	0.010842	1.713623	0.144179	0.029103
0.157286	9.329997E-5	0.641479	0.000430	207188.874788	1025.302750	1909.124500	2167.026093	0.010459	1.862011	0.157286	0.032035
0.170394	0.000103	0.707175	0.000476	228406.063403	1014.725343	2073.373232	2308.363940	0.010106	2.043285	0.170394	0.035298
0.183501	0.000110	0.779601	0.000525	251797.761919	992.939878	2254.180964	2463.181159	0.009782	2.270209	0.183501	0.037805
0.399815	0.000257	0.859431	0.000578	277586.043505	957.196876	2453.420452	2633.533325	0.009487	2.563130	0.399815	0.088083
0.599722	0.000395	0.947445	0.000633	306014.986782	904.210889	2673.475615	2822.245418	0.009223	2.956695	0.599722	0.135594
0.799630	0.000534	1.044480	0.000691	337352.652975	830.037769	2917.734289	3033.502280	0.008992	3.515183	0.799630	0.183297
0.999537	0.000672	1.151438	0.000750	371898.400289	729.820542	3191.462761	3273.846755	0.008803	4.372942	0.999537	0.230586
1.199450	0.000784	1.269373	0.000810	409983.757522	597.271544	3503.406421	3553.954114	0.008669	5.865684	1.199450	0.269314
