MicroRheology Analysis v9.2.8
10/11/18 8:11:40 PM

Correlation Mode:	Cross
Geometry:	Transmission
Multi-Tau Duration (s):	120
Echo Duration (s):	60
Wavelength (nm):	685.0
Temperature (°C):	30.06
Cuvette Thickness (mm):	10.00
Absorption Length (mm):	196.942
Solvent:	Water
Solvent Refractive Index:	1.329
Particle Radius (nm):	300.0
Mean Count Rate (kHz):	123.9
l* (microns):	827.98



Lag Time (s)	Mean Square Displacement (micron^2)	Fit Lag Time (s)	Mean Square Displacement Fit (micron^2)	Frequency(rad/s)	G1 (Pa)	G2 (Pa)	G* (Pa)	Complex Viscosity (Pa s)	Loss Tangent (-)	Time (s)	Creep Compliance (1/Pa)

3.612500E-6	2.560503E-6	3.612508E-6	2.522102E-6	0.185270	1.735633	5.697408	5.955911	32.147144	3.282611	3.612500E-6	0.000576
4.012500E-6	2.680616E-6	3.969186E-6	2.693882E-6	0.203562	1.665169	6.186929	6.407096	31.474877	3.715496	4.012500E-6	0.000604
4.412500E-6	2.834562E-6	4.361084E-6	2.872717E-6	0.223658	1.606119	6.719703	6.908982	30.890858	4.183813	4.412500E-6	0.000638
4.812500E-6	3.022399E-6	4.791629E-6	3.058659E-6	0.245739	1.560805	7.301377	7.466339	30.383183	4.677957	4.812500E-6	0.000680
5.212500E-6	3.214910E-6	5.264683E-6	3.251794E-6	0.270000	1.532058	7.937862	8.084359	29.942082	5.181177	5.212500E-6	0.000724
5.612500E-6	3.427110E-6	5.784418E-6	3.452175E-6	0.296656	1.523266	8.635272	8.768595	29.558135	5.668920	5.612500E-6	0.000772
6.012500E-6	3.701818E-6	6.355501E-6	3.659873E-6	0.325945	1.538458	9.399720	9.524788	29.222063	6.109832	6.012500E-6	0.000833
6.412500E-6	3.811472E-6	6.983013E-6	3.874934E-6	0.358122	1.582436	10.237638	10.359215	28.926467	6.469545	6.412500E-6	0.000858
7.212500E-6	3.951058E-6	7.672394E-6	4.097344E-6	0.393477	1.660808	11.155473	11.278425	28.663470	6.716897	7.212500E-6	0.000890
8.012500E-6	4.191992E-6	8.429904E-6	4.327172E-6	0.432327	1.780064	12.159402	12.289007	28.425287	6.830879	8.012500E-6	0.000944
8.812500E-6	4.512844E-6	9.262125E-6	4.564380E-6	0.475009	1.947680	13.255614	13.397939	28.205676	6.805848	8.812500E-6	0.001016
9.612500E-6	4.657626E-6	1.017658E-5	4.809002E-6	0.521903	2.172152	14.450065	14.612414	27.998328	6.652418	9.612500E-6	0.001049
1.041250E-5	4.853587E-6	1.118119E-5	5.060960E-6	0.573429	2.463016	15.748165	15.939609	27.796985	6.393853	1.041250E-5	0.001093
1.121250E-5	4.986113E-6	1.228526E-5	5.320310E-6	0.630044	2.830858	17.154664	17.386669	27.595967	6.059882	1.121250E-5	0.001123
1.201250E-5	5.286955E-6	1.349810E-5	5.586875E-6	0.692245	3.287348	18.673719	18.960866	27.390380	5.680482	1.201250E-5	0.001190
1.281250E-5	5.494682E-6	1.483066E-5	5.860625E-6	0.760593	3.845086	20.308120	20.668924	27.174760	5.281578	1.281250E-5	0.001237
1.441250E-5	5.766326E-6	1.629493E-5	6.141487E-6	0.835682	4.517670	22.059876	22.517715	26.945313	4.883021	1.441250E-5	0.001298
1.601250E-5	5.948492E-6	1.790367E-5	6.429296E-6	0.918190	5.319455	23.929267	24.513392	26.697506	4.498443	1.601250E-5	0.001339
1.761250E-5	6.149412E-6	1.967119E-5	6.723909E-6	1.008847	6.265276	25.914612	26.661222	26.427422	4.136228	1.761250E-5	0.001384
1.921250E-5	6.401734E-6	2.161313E-5	7.025155E-6	1.108437	7.370656	28.013308	28.966739	26.132966	3.800653	1.921250E-5	0.001441
2.081250E-5	6.706274E-6	2.374708E-5	7.332885E-6	1.217871	8.651181	30.220021	31.433940	25.810574	3.493167	2.081250E-5	0.001510
2.241250E-5	6.920659E-6	2.609143E-5	7.646800E-6	1.338113	10.122312	32.527478	34.066083	25.458308	3.213444	2.241250E-5	0.001558
2.401250E-5	7.204968E-6	2.866771E-5	7.966743E-6	1.470234	11.798699	34.925369	36.864491	25.073892	2.960103	2.401250E-5	0.001622
2.561250E-5	7.575268E-6	3.149765E-5	8.292300E-6	1.615366	13.694883	37.402762	39.831099	24.657634	2.731149	2.561250E-5	0.001705
2.881250E-5	7.961803E-6	3.460780E-5	8.623329E-6	1.774854	15.823643	39.944589	42.964612	24.207412	2.524361	2.881250E-5	0.001792
3.201250E-5	8.378265E-6	3.802426E-5	8.959338E-6	1.950065	18.196678	42.535038	46.263901	23.724286	2.337517	3.201250E-5	0.001886
3.521250E-5	8.699148E-6	4.177835E-5	9.300069E-6	2.142600	20.823529	45.155177	49.725340	23.207943	2.168469	3.521250E-5	0.001958
3.841250E-5	8.920128E-6	4.590287E-5	9.645088E-6	2.354155	23.710840	47.783766	53.343156	22.659156	2.015271	3.841250E-5	0.002008
4.161250E-5	9.199981E-6	5.043488E-5	9.994019E-6	2.586551	26.863532	50.399384	57.111709	22.080258	1.876127	4.161250E-5	0.002071
4.481250E-5	9.531952E-6	5.541415E-5	1.034639E-5	2.841909	30.283329	52.978265	61.022755	21.472453	1.749420	4.481250E-5	0.002146
4.801250E-5	9.879846E-6	6.088505E-5	1.070174E-5	3.122487	33.968799	55.496047	65.066816	20.838141	1.633736	4.801250E-5	0.002224
5.121250E-5	1.024161E-5	6.689608E-5	1.105960E-5	3.430791	37.914426	57.927049	69.231833	20.179555	1.527837	5.121250E-5	0.002306
5.761250E-5	1.065031E-5	7.350048E-5	1.141945E-5	3.769483	42.112105	60.246842	73.505859	19.500247	1.430630	5.761250E-5	0.002398
6.401250E-5	1.105907E-5	8.075763E-5	1.178079E-5	4.141617	46.550230	62.430829	77.875107	18.803068	1.341150	6.401250E-5	0.002490
7.041250E-5	1.143482E-5	8.872933E-5	1.214298E-5	4.550498	51.213893	64.455582	82.324874	18.091397	1.258557	7.041250E-5	0.002574
7.681250E-5	1.176297E-5	9.749016E-5	1.250562E-5	4.999785	56.084078	66.298421	86.838381	17.368423	1.182126	7.681250E-5	0.002648
8.321250E-5	1.207456E-5	0.000107	1.286802E-5	5.493373	61.140468	67.940126	91.400315	16.638287	1.111214	8.321250E-5	0.002718
8.961250E-5	1.232898E-5	0.000118	1.322962E-5	6.035801	66.357744	69.361554	95.991538	15.903696	1.045267	8.961250E-5	0.002776
9.601250E-5	1.263592E-5	0.000129	1.358996E-5	6.631646	71.710660	70.548867	100.596030	15.169089	0.983799	9.601250E-5	0.002845
0.000102	1.298281E-5	0.000142	1.394827E-5	7.286391	77.171215	71.489433	105.195701	14.437285	0.926374	0.000102	0.002923
0.000115	1.335324E-5	0.000156	1.430410E-5	8.005788	82.709683	72.174420	109.772667	13.711662	0.872624	0.000115	0.003006
0.000128	1.375121E-5	0.000172	1.465685E-5	8.796156	88.296290	72.598738	114.310155	12.995467	0.822217	0.000128	0.003096
0.000141	1.415727E-5	0.000188	1.500599E-5	9.664556	93.901183	72.760527	118.791946	12.291506	0.774863	0.000141	0.003187
0.000154	1.447512E-5	0.000207	1.535088E-5	10.618759	99.493575	72.661006	123.201434	11.602244	0.730309	0.000154	0.003259
0.000166	1.477195E-5	0.000227	1.569106E-5	11.667035	105.045167	72.305742	127.524929	10.930364	0.688330	0.000166	0.003326
0.000179	1.503002E-5	0.000250	1.602605E-5	12.818909	110.528355	71.702553	131.748903	10.277700	0.648725	0.000179	0.003384
0.000192	1.529621E-5	0.000275	1.635528E-5	14.084637	115.915965	70.862360	135.860167	9.645983	0.611325	0.000192	0.003444
0.000205	1.557830E-5	0.000302	1.667841E-5	15.475161	121.184265	69.799474	139.848463	9.036964	0.575978	0.000205	0.003507
0.000230	1.589726E-5	0.000332	1.699490E-5	17.002939	126.312063	68.529950	143.704876	8.451767	0.542545	0.000230	0.003579
0.000256	1.621236E-5	0.000364	1.730449E-5	18.681647	131.279524	67.071764	147.420945	7.891218	0.510908	0.000256	0.003650
0.000282	1.652643E-5	0.000400	1.760681E-5	20.525811	136.071600	65.445106	150.991862	7.356195	0.480961	0.000282	0.003721
0.000307	1.678770E-5	0.000440	1.790154E-5	22.552318	140.674802	63.670437	154.412838	6.846872	0.452607	0.000307	0.003780
0.000333	1.702686E-5	0.000483	1.818843E-5	24.778979	145.078181	61.769754	157.680630	6.363484	0.425769	0.000333	0.003833
0.000358	1.721009E-5	0.000531	1.846730E-5	27.225191	149.275371	59.765532	160.795072	5.906114	0.400371	0.000358	0.003875
0.000384	1.740821E-5	0.000583	1.873805E-5	29.913283	153.261199	57.679771	163.755766	5.474349	0.376349	0.000384	0.003919
0.000410	1.763337E-5	0.000641	1.900051E-5	32.866516	157.034161	55.534977	166.564887	5.067920	0.353649	0.000410	0.003970
0.000461	1.787932E-5	0.000704	1.925470E-5	36.111270	160.595295	53.352664	169.225753	4.686231	0.332218	0.000461	0.004025
0.000512	1.814075E-5	0.000774	1.950065E-5	39.676423	163.947713	51.153721	171.742702	4.328583	0.312012	0.000512	0.004084
0.000563	1.839007E-5	0.000850	1.973842E-5	43.593414	167.097064	48.958131	174.121588	3.994218	0.292992	0.000563	0.004140
0.000614	1.859660E-5	0.000934	1.996815E-5	47.897289	170.050515	46.784655	176.368879	3.682231	0.275122	0.000614	0.004187
0.000666	1.878374E-5	0.001026	2.019011E-5	52.625984	172.817010	44.650982	178.492098	3.391710	0.258371	0.000666	0.004229
0.000717	1.894342E-5	0.001127	2.040447E-5	57.821363	175.407215	42.573324	180.499803	3.121680	0.242711	0.000717	0.004265
0.000768	1.911806E-5	0.001239	2.061165E-5	63.530049	177.832749	40.566430	182.400992	2.871098	0.228116	0.000768	0.004304
0.000819	1.931633E-5	0.001361	2.081200E-5	69.802958	180.105504	38.643936	184.204632	2.638923	0.214563	0.000819	0.004349
0.000922	1.954384E-5	0.001495	2.100593E-5	76.694240	182.238889	36.818144	185.920920	2.424184	0.202032	0.000922	0.004400
0.001024	1.979471E-5	0.001643	2.119401E-5	84.265585	184.246964	35.099566	187.560453	2.225825	0.190503	0.001024	0.004456
0.001126	2.002440E-5	0.001805	2.137678E-5	92.585647	186.143148	33.497640	189.133190	2.042792	0.179956	0.001126	0.004508
0.001229	2.021576E-5	0.001984	2.155490E-5	101.726245	187.941621	32.020807	190.649901	1.874147	0.170376	0.001229	0.004551
0.001331	2.039148E-5	0.002179	2.172901E-5	111.768904	189.656718	30.676017	192.121547	1.718918	0.161745	0.001331	0.004591
0.001434	2.053894E-5	0.002395	2.189985E-5	122.804503	191.301633	29.469382	193.558155	1.576149	0.154047	0.001434	0.004624
0.001536	2.070460E-5	0.002631	2.206825E-5	134.926749	192.890835	28.406066	194.971226	1.445015	0.147265	0.001536	0.004661
0.001638	2.090383E-5	0.002891	2.223504E-5	148.249430	194.436804	27.490205	196.370522	1.324595	0.141384	0.001638	0.004706
0.001843	2.113732E-5	0.003176	2.240114E-5	162.885064	195.952781	26.725531	197.766899	1.214150	0.136388	0.001843	0.004759
0.002048	2.140061E-5	0.003490	2.256751E-5	178.967477	197.450572	26.114901	199.170069	1.112884	0.132260	0.002048	0.004818
0.002253	2.165924E-5	0.003834	2.273515E-5	196.634005	198.942568	25.660766	200.590678	1.020122	0.128986	0.002253	0.004876
0.002458	2.189532E-5	0.004213	2.290516E-5	216.048268	200.439657	25.365007	202.038214	0.935153	0.126547	0.002458	0.004929
0.002662	2.211928E-5	0.004629	2.307863E-5	237.378394	201.952655	25.229336	203.522466	0.857376	0.124927	0.002662	0.004980
0.002867	2.229915E-5	0.005086	2.325677E-5	260.815462	203.491512	25.255111	205.052715	0.786198	0.124109	0.002867	0.005020
0.003072	2.246556E-5	0.005588	2.344078E-5	286.564410	205.066047	25.443574	206.638474	0.721089	0.124075	0.003072	0.005058
0.003277	2.263975E-5	0.006139	2.363202E-5	314.857607	206.685146	25.795819	208.288679	0.661533	0.124807	0.003277	0.005097
0.003686	2.281924E-5	0.006745	2.383180E-5	345.942754	208.357400	26.312929	210.012324	0.607072	0.126287	0.003686	0.005137
0.004096	2.301794E-5	0.007411	2.404161E-5	380.095857	210.091010	26.996050	211.818364	0.557276	0.128497	0.004096	0.005182
0.004506	2.319890E-5	0.008143	2.426284E-5	417.622173	211.893405	27.846346	213.715311	0.511743	0.131417	0.004506	0.005223
0.004915	2.333406E-5	0.008947	2.449719E-5	458.848767	213.772221	28.865250	215.712227	0.470116	0.135028	0.004915	0.005253
0.005325	2.346842E-5	0.009830	2.474623E-5	504.150490	215.734327	30.054414	217.817740	0.432049	0.139312	0.005325	0.005284
0.005734	2.356987E-5	0.010801	2.501174E-5	553.929089	217.786007	31.415519	220.040177	0.397235	0.144249	0.005734	0.005306
0.006144	2.369331E-5	0.011867	2.529558E-5	608.617213	219.933731	32.950602	222.388373	0.365399	0.149821	0.006144	0.005334
0.006554	2.389255E-5	0.013039	2.559963E-5	668.703534	222.183381	34.661982	224.870870	0.336279	0.156006	0.006554	0.005379
0.007373	2.414484E-5	0.014326	2.592600E-5	734.713176	224.541670	36.552729	227.497392	0.309641	0.162788	0.007373	0.005436
0.008192	2.444292E-5	0.015741	2.627692E-5	807.258072	227.013679	38.625946	230.276299	0.285257	0.170148	0.008192	0.005503
0.009011	2.475288E-5	0.017295	2.665464E-5	886.959402	229.604916	40.884832	233.216609	0.262939	0.178066	0.009011	0.005573
0.009830	2.499504E-5	0.019002	2.706165E-5	974.515355	232.321935	43.333845	236.328804	0.242509	0.186525	0.009830	0.005627
0.010650	2.521948E-5	0.020878	2.750066E-5	1070.736889	235.169364	45.977324	239.621669	0.223791	0.195507	0.010650	0.005678
0.011469	2.541912E-5	0.022939	2.797451E-5	1176.439893	238.153398	48.820215	243.105850	0.206645	0.204995	0.011469	0.005723
0.012288	2.567631E-5	0.025204	2.848623E-5	1292.580538	241.279995	51.868503	246.792175	0.190930	0.214972	0.012288	0.005781
0.013107	2.596726E-5	0.027692	2.903919E-5	1420.200242	244.554584	55.128279	250.691188	0.176518	0.225423	0.013107	0.005846
0.014746	2.624803E-5	0.030426	2.963691E-5	1560.413714	247.983127	58.606213	254.814284	0.163299	0.236331	0.014746	0.005909
0.016384	2.656566E-5	0.033430	3.028328E-5	1714.460743	251.572540	62.310330	259.174304	0.151170	0.247683	0.016384	0.005981
0.018022	2.698676E-5	0.036731	3.098255E-5	1883.743530	255.328073	66.248519	263.782659	0.140031	0.259464	0.018022	0.006076
0.019661	2.743309E-5	0.040357	3.173910E-5	2069.708489	259.257228	70.429922	268.653465	0.129803	0.271660	0.019661	0.006176
0.021299	2.793241E-5	0.044341	3.255810E-5	2274.042338	263.366915	74.864813	273.800789	0.120403	0.284261	0.021299	0.006289
0.022938	2.833118E-5	0.048719	3.344485E-5	2498.559002	267.664380	79.564038	279.239425	0.111760	0.297253	0.022938	0.006378
0.024576	2.865562E-5	0.053528	3.440514E-5	2745.249439	272.157019	84.539256	284.984787	0.103810	0.310627	0.024576	0.006451
0.026214	2.904887E-5	0.058813	3.544573E-5	3016.287856	276.852177	89.802745	291.052678	0.096494	0.324371	0.026214	0.006540
0.029491	2.955317E-5	0.064620	3.657352E-5	3314.031310	281.760411	95.369725	297.463130	0.089759	0.338478	0.029491	0.006653
0.032768	3.021403E-5	0.070999	3.779637E-5	3641.250930	286.888246	101.254654	304.232428	0.083552	0.352941	0.032768	0.006802
0.036045	3.092471E-5	0.078010	3.912302E-5	4000.708682	292.247170	107.474692	311.382751	0.077832	0.367753	0.036045	0.006962
0.039322	3.161373E-5	0.085712	4.056258E-5	4395.723728	297.845271	114.047373	318.933549	0.072555	0.382908	0.039322	0.007117
0.042598	3.230373E-5	0.094173	4.212543E-5	4829.690252	303.693496	120.991960	326.907929	0.067687	0.398402	0.042598	0.007273
0.045875	3.281908E-5	0.103471	4.382336E-5	5306.482784	309.803873	128.330721	335.331499	0.063193	0.414232	0.045875	0.007389
0.049152	3.336292E-5	0.113686	4.566868E-5	5830.424258	316.186443	136.086100	344.228548	0.059040	0.430398	0.049152	0.007511
0.052429	3.412729E-5	0.124910	4.767547E-5	6406.061435	322.853636	144.282861	353.626942	0.055202	0.446899	0.052429	0.007683
0.058982	3.510200E-5	0.137242	4.985932E-5	7038.517110	329.817276	152.947624	363.555238	0.051652	0.463734	0.058982	0.007903
0.065536	3.636294E-5	0.150792	5.223713E-5	7733.325536	337.093849	162.112311	374.049013	0.048368	0.480912	0.065536	0.008187
0.072090	3.773773E-5	0.165678	5.482751E-5	8496.949782	344.692556	171.806557	385.136926	0.045326	0.498434	0.072090	0.008496
0.078643	3.896124E-5	0.182038	5.765230E-5	9335.762885	352.630861	182.066091	396.858395	0.042509	0.516308	0.078643	0.008772
0.085197	4.025534E-5	0.200009	6.073346E-5	10257.445551	360.923837	192.930117	409.253035	0.039898	0.534545	0.085197	0.009063
0.091750	4.121116E-5	0.219756	6.409756E-5	11270.230528	369.583671	204.437252	422.358473	0.037476	0.553156	0.091750	0.009278
0.098304	4.221880E-5	0.241452	6.777237E-5	12382.731105	378.631580	216.635866	436.225826	0.035229	0.572155	0.098304	0.009505
0.104858	4.360804E-5	0.265288	7.178952E-5	13605.352973	388.080105	229.573518	450.899288	0.033141	0.591562	0.104858	0.009818
0.117965	4.543360E-5	0.291478	7.618389E-5	14948.558339	397.947765	243.303963	466.432463	0.031203	0.611397	0.117965	0.010229
0.131072	4.773674E-5	0.320258	8.099485E-5	16424.391842	408.251564	257.886033	482.881502	0.029400	0.631684	0.131072	0.010747
0.144179	5.043349E-5	0.351876	8.626406E-5	18045.933314	419.008865	273.383626	500.306941	0.027724	0.652453	0.144179	0.011354
0.157286	5.008396E-5	0.386615	9.203892E-5	19827.547153	430.237872	289.867383	518.775218	0.026164	0.673737	0.157286	0.011276
0.170394	5.760573E-5	0.424781	9.837129E-5	21785.128563	441.954660	307.412813	538.355421	0.024712	0.695575	0.170394	0.012969
0.183501	6.921607E-5	0.466723	0.000105	23935.841696	454.178125	326.105128	559.126393	0.023359	0.718012	0.183501	0.015583
0.399815	8.560896E-5	0.512803	0.000113	26298.996192	466.922681	346.034691	581.168476	0.022099	0.741096	0.399815	0.019274
0.599723	0.000126	0.563427	0.000121	28895.221570	480.209240	367.307385	604.578885	0.020923	0.764890	0.599723	0.028334
0.799630	0.000157	0.619055	0.000131	31748.401310	494.043789	390.026836	629.444357	0.019826	0.789458	0.799630	0.035367
0.999538	0.000189	0.680164	0.000141	34882.454622	508.448835	414.322742	655.883795	0.018803	0.814876	0.999538	0.042605
1.199450	0.000222	0.747321	0.000152	38326.759122	523.426006	440.322804	684.002161	0.017847	0.841232	1.199450	0.049914
1.399350	0.000257	0.821105	0.000164	42110.440273	538.989506	468.179475	713.933966	0.016954	0.868624	1.399350	0.057917
1.599260	0.000291	0.902171	0.000177	46268.161176	555.137209	498.050923	745.809656	0.016119	0.897167	1.599260	0.065432
1.799170	0.000325	0.991231	0.000192	50835.777193	571.871834	530.119203	779.784434	0.015339	0.926990	1.799170	0.073281
1.999070	0.000358	1.089099	0.000208	55854.457716	589.185689	564.583259	816.023304	0.014610	0.958243	1.999070	0.080637
2.198980	0.000394	1.196627	0.000226	61368.791067	607.064504	601.662551	854.707632	0.013927	0.991102	2.198980	0.088749
2.398890	0.000427	1.314764	0.000246	67427.876423	625.480572	641.593531	896.029132	0.013289	1.025761	2.398890	0.096192
2.598800	0.000465	1.444574	0.000267	74084.517560	644.401637	684.645201	940.208765	0.012691	1.062451	2.598800	0.104714
2.798700	0.000496	1.587191	0.000291	81398.347644	663.783364	731.121432	987.495267	0.012132	1.101446	2.798700	0.111638
2.998610	0.000525	1.743894	0.000317	89435.908505	683.546683	781.331021	1038.130162	0.011608	1.143054	2.998610	0.118085
3.198520	0.000559	1.916065	0.000345	98264.814299	703.619191	835.648957	1092.423520	0.011117	1.187644	3.198520	0.125749
3.398430	0.000594	2.105225	0.000375	107966.583074	723.882726	894.468760	1150.686997	0.010658	1.235654	3.398430	0.133686
3.598340	0.000624	2.313066	0.000409	118625.308594	744.206567	958.244393	1213.291281	0.010228	1.287605	3.598340	0.140408
3.798240	0.000662	2.541443	0.000445	130337.417533	764.413327	1027.464729	1280.629339	0.009825	1.344122	3.798240	0.149073
3.998150	0.000684	2.792342	0.000485	143204.652024	784.304703	1102.702888	1353.176827	0.009449	1.405962	3.998150	0.154080
4.198060	0.000718	3.068001	0.000527	157344.012255	803.624308	1184.585978	1431.452398	0.009098	1.474054	4.198060	0.161730
4.397970	0.000721	3.370909	0.000573	172878.238885	822.085577	1273.853200	1516.089269	0.008770	1.549538	4.397970	0.162396
4.597870	0.000752	3.703705	0.000623	189944.974430	839.364848	1371.400197	1607.878057	0.008465	1.633855	4.597870	0.169338
4.797780	0.000753	4.069355	0.000676	208697.270946	855.105434	1478.333469	1707.827611	0.008183	1.728832	4.797780	0.169605
4.997690	0.000762	4.471116	0.000732	229300.769415	868.956094	1596.126382	1817.334345	0.007926	1.836832	4.997690	0.171559
5.197590	0.000802	4.912503	0.000792	251940.853321	880.592178	1726.803402	1938.373693	0.007694	1.960957	5.197590	0.180601
