MicroRheology Analysis v9.2.8
10/03/18 5:30:46 PM

Correlation Mode:	Cross
Geometry:	Transmission
Multi-Tau Duration (s):	120
Echo Duration (s):	60
Wavelength (nm):	685.0
Temperature (°C):	40.00
Cuvette Thickness (mm):	10.00
Absorption Length (mm):	Inf
Solvent:	Water
Solvent Refractive Index:	1.328
Particle Radius (nm):	300.0
Mean Count Rate (kHz):	114.5
l* (microns):	555.56



Lag Time (s)	Mean Square Displacement (micron^2)	Fit Lag Time (s)	Mean Square Displacement Fit (micron^2)	Frequency(rad/s)	G1 (Pa)	G2 (Pa)	G* (Pa)	Complex Viscosity (Pa s)	Loss Tangent (-)	Time (s)	Creep Compliance (1/Pa)

2.412500E-6	1.536396E-6	2.412532E-6	1.403643E-6	0.277906	1.634615	12.266093	12.374531	44.527680	7.503964	2.412500E-6	0.000335
2.612500E-6	1.516448E-6	2.657456E-6	1.500939E-6	0.306121	1.708180	13.411347	13.519693	44.164594	7.851249	2.612500E-6	0.000331
2.812500E-6	1.536032E-6	2.927301E-6	1.603364E-6	0.337200	1.826410	14.669907	14.783164	43.840889	8.032097	2.812500E-6	0.000335
3.012500E-6	1.595189E-6	3.224536E-6	1.711058E-6	0.371442	1.998196	16.050333	16.174238	43.544442	8.032412	3.012500E-6	0.000348
3.212500E-6	1.669111E-6	3.551890E-6	1.824159E-6	0.409153	2.233864	17.561922	17.703425	43.268500	7.861678	3.212500E-6	0.000364
3.612500E-6	1.794984E-6	3.912544E-6	1.942860E-6	0.450695	2.545098	19.213138	19.380975	43.002431	7.549075	3.612500E-6	0.000391
4.012500E-6	1.924579E-6	4.309777E-6	2.067274E-6	0.496452	2.945143	21.012480	21.217874	42.739066	7.134622	4.012500E-6	0.000420
4.412500E-6	2.002334E-6	4.747383E-6	2.197562E-6	0.546860	3.448698	22.967201	23.224681	42.469166	6.659673	4.412500E-6	0.000436
4.812500E-6	2.107879E-6	5.229370E-6	2.333827E-6	0.602386	4.072030	25.083958	25.412327	42.186141	6.160062	4.812500E-6	0.000459
5.212500E-6	2.272561E-6	5.760381E-6	2.476221E-6	0.663554	4.832784	27.367622	27.791051	41.882128	5.662911	5.212500E-6	0.000495
5.612500E-6	2.438372E-6	6.345168E-6	2.624794E-6	0.730927	5.750017	29.821893	30.371170	41.551583	5.186401	5.612500E-6	0.000532
6.012500E-6	2.642522E-6	6.989416E-6	2.779690E-6	0.805136	6.844092	32.448686	33.162612	41.188822	4.741124	6.012500E-6	0.000576
6.412500E-6	2.722800E-6	7.699144E-6	2.940980E-6	0.886880	8.136376	35.247548	36.174442	40.788411	4.332094	6.412500E-6	0.000594
7.212500E-6	2.822981E-6	8.480870E-6	3.108695E-6	0.976923	9.649059	38.215716	39.415038	40.346107	3.960564	7.212500E-6	0.000615
8.012500E-6	3.010618E-6	9.341855E-6	3.282865E-6	1.076111	11.404979	41.348003	42.892085	39.858430	3.625434	8.012500E-6	0.000656
8.812500E-6	3.241822E-6	1.029044E-5	3.463567E-6	1.185389	13.426414	44.634560	46.610220	39.320610	3.324384	8.812500E-6	0.000707
9.612500E-6	3.387470E-6	1.133534E-5	3.650768E-6	1.305738	15.735935	48.064577	50.574926	38.732820	3.054447	9.612500E-6	0.000738
1.041250E-5	3.572802E-6	1.248616E-5	3.844411E-6	1.438320	18.354809	51.622067	54.788108	38.091735	2.812455	1.041250E-5	0.000779
1.121250E-5	3.662944E-6	1.375390E-5	4.044489E-6	1.584344	21.303668	55.289695	59.251976	37.398435	2.595313	1.121250E-5	0.000798
1.201250E-5	3.810057E-6	1.515026E-5	4.250900E-6	1.745223	24.600172	59.044103	63.963853	36.650820	2.400150	1.201250E-5	0.000831
1.281250E-5	3.962582E-6	1.668876E-5	4.463610E-6	1.922402	28.260532	62.861430	68.921818	35.851933	2.224354	1.281250E-5	0.000864
1.441250E-5	4.141411E-6	1.838322E-5	4.682404E-6	2.117588	32.297716	66.713252	74.120176	35.002166	2.065572	1.441250E-5	0.000903
1.601250E-5	4.337638E-6	2.024974E-5	4.907160E-6	2.332601	36.721028	70.568739	79.551120	34.104041	1.921753	1.601250E-5	0.000946
1.761250E-5	4.525051E-6	2.230561E-5	5.137672E-6	2.569453	41.535150	74.393980	85.203480	33.160164	1.791109	1.761250E-5	0.000986
1.921250E-5	4.685287E-6	2.457021E-5	5.373738E-6	2.830311	46.742189	78.155689	91.066701	32.175506	1.672059	1.921250E-5	0.001021
2.081250E-5	4.850433E-6	2.706497E-5	5.615135E-6	3.117714	52.337707	81.816210	97.124291	31.152407	1.563236	2.081250E-5	0.001057
2.241250E-5	5.021338E-6	2.981320E-5	5.861578E-6	3.434267	58.312650	85.339040	103.359164	30.096430	1.463474	2.241250E-5	0.001095
2.401250E-5	5.230400E-6	3.283978E-5	6.112689E-6	3.782925	64.653816	88.688045	109.752837	29.012695	1.371737	2.401250E-5	0.001140
2.561250E-5	5.522999E-6	3.617449E-5	6.368253E-6	4.166984	71.343703	91.828090	116.285520	27.906400	1.287123	2.561250E-5	0.001204
2.881250E-5	5.836061E-6	3.984735E-5	6.627809E-6	4.590124	78.357076	94.723142	122.932115	26.781872	1.208865	2.881250E-5	0.001272
3.201250E-5	6.116874E-6	4.389333E-5	6.891011E-6	5.056147	85.666381	97.342502	129.669933	25.646000	1.136298	3.201250E-5	0.001333
3.521250E-5	6.357529E-6	4.834977E-5	7.157408E-6	5.569509	93.239366	99.656679	136.473561	24.503695	1.068826	3.521250E-5	0.001386
3.841250E-5	6.530456E-6	5.325876E-5	7.426585E-6	6.135009	101.039098	101.639728	143.316202	23.360390	1.005945	3.841250E-5	0.001424
4.161250E-5	6.719286E-6	5.866668E-5	7.698096E-6	6.757871	109.027985	103.271294	150.173439	22.222005	0.947200	4.161250E-5	0.001465
4.481250E-5	6.945688E-6	6.462320E-5	7.971413E-6	7.444132	117.161281	104.532186	157.015106	21.092467	0.892208	4.481250E-5	0.001514
4.801250E-5	7.183988E-6	7.118430E-5	8.246048E-6	8.199858	125.397432	105.412412	163.817864	19.978133	0.840627	4.801250E-5	0.001566
5.121250E-5	7.421562E-6	7.841207E-5	8.521516E-6	9.032454	133.691304	105.903439	170.554693	18.882431	0.792149	5.121250E-5	0.001618
5.761250E-5	7.713792E-6	8.637289E-5	8.797242E-6	9.949597	141.996352	106.003060	177.199358	17.809703	0.746520	5.761250E-5	0.001682
6.401250E-5	8.012760E-6	9.514292E-5	9.072750E-6	10.959677	150.270545	105.715489	183.730785	16.764251	0.703501	6.401250E-5	0.001747
7.041250E-5	8.292257E-6	0.000105	9.347477E-6	12.072556	158.469402	105.047250	190.124896	15.748520	0.662887	7.041250E-5	0.001808
7.681250E-5	8.559131E-6	0.000115	9.620835E-6	13.298383	166.550410	104.011407	196.360413	14.765736	0.624504	7.681250E-5	0.001866
8.321250E-5	8.781291E-6	0.000127	9.892385E-6	14.648441	174.476893	102.625673	202.420886	13.818596	0.588191	8.321250E-5	0.001914
8.961250E-5	8.939123E-6	0.000140	1.016152E-5	16.135782	182.212792	100.910045	208.289075	12.908521	0.553803	8.961250E-5	0.001949
9.601250E-5	9.151591E-6	0.000154	1.042773E-5	17.774157	189.725372	98.889152	213.950417	12.037163	0.521223	9.601250E-5	0.001995
0.000102	9.393997E-6	0.000170	1.069052E-5	19.578730	196.987821	96.590611	219.394503	11.205757	0.490338	0.000102	0.002048
0.000115	9.647566E-6	0.000187	1.094939E-5	21.566738	203.975165	94.043541	224.610898	10.414690	0.461054	0.000115	0.002103
0.000128	9.950765E-6	0.000206	1.120393E-5	23.756339	210.669050	91.279956	229.594162	9.664543	0.433286	0.000128	0.002169
0.000141	1.023389E-5	0.000227	1.145362E-5	26.168427	217.053957	88.332052	234.339436	8.955045	0.406959	0.000141	0.002231
0.000154	1.045813E-5	0.000250	1.169810E-5	28.825262	223.120053	85.233439	238.845761	8.285988	0.382007	0.000154	0.002280
0.000166	1.067671E-5	0.000276	1.193702E-5	31.752043	228.860655	82.017343	243.113233	7.656617	0.358372	0.000166	0.002327
0.000179	1.085359E-5	0.000304	1.216994E-5	34.975844	234.274483	78.717099	247.145534	7.066178	0.336004	0.000179	0.002366
0.000192	1.103445E-5	0.000334	1.239665E-5	38.527348	239.362646	75.364901	250.946896	6.513474	0.314857	0.000192	0.002405
0.000205	1.124938E-5	0.000368	1.261684E-5	42.439233	244.130839	71.992415	254.524605	5.997389	0.294893	0.000205	0.002452
0.000230	1.148187E-5	0.000406	1.283028E-5	46.748307	248.587096	68.629574	257.886724	5.516493	0.276079	0.000230	0.002503
0.000256	1.172117E-5	0.000447	1.303686E-5	51.494076	252.744743	65.304566	261.045191	5.069422	0.258382	0.000256	0.002555
0.000282	1.195987E-5	0.000492	1.323637E-5	56.722852	256.616444	62.043354	264.010184	4.654388	0.241775	0.000282	0.002607
0.000307	1.215148E-5	0.000542	1.342878E-5	62.481611	260.219595	58.870819	266.795822	4.269989	0.226235	0.000307	0.002649
0.000333	1.232468E-5	0.000597	1.361405E-5	68.825959	263.571712	55.808916	269.415446	3.914445	0.211741	0.000333	0.002687
0.000358	1.247561E-5	0.000658	1.379221E-5	75.814311	266.692493	52.878180	271.884144	3.586185	0.198274	0.000358	0.002720
0.000384	1.263330E-5	0.000725	1.396333E-5	83.512533	269.602015	50.096871	274.216963	3.283543	0.185818	0.000384	0.002754
0.000410	1.279507E-5	0.000799	1.412751E-5	91.991365	272.322169	47.481241	276.430519	3.004962	0.174357	0.000410	0.002789
0.000461	1.298693E-5	0.000880	1.428494E-5	101.331616	274.874372	45.045393	278.540855	2.748805	0.163876	0.000461	0.002831
0.000512	1.318838E-5	0.000969	1.443585E-5	111.619467	277.281025	42.801821	280.565077	2.513586	0.154363	0.000512	0.002875
0.000563	1.338341E-5	0.001067	1.458051E-5	122.952841	279.563608	40.761243	282.519539	2.297788	0.145803	0.000563	0.002917
0.000614	1.353442E-5	0.001176	1.471921E-5	135.435834	281.744258	38.932965	284.421523	2.100046	0.138185	0.000614	0.002950
0.000666	1.366964E-5	0.001295	1.485236E-5	149.187519	283.843924	37.324759	286.287462	1.918977	0.131497	0.000666	0.002980
0.000717	1.378045E-5	0.001427	1.498035E-5	164.334768	285.883500	35.943368	288.134172	1.753337	0.125727	0.000717	0.003004
0.000768	1.390260E-5	0.001571	1.510363E-5	181.020336	287.882865	34.794366	289.977916	1.601908	0.120863	0.000768	0.003031
0.000819	1.403055E-5	0.001731	1.522273E-5	199.398750	289.861644	33.882461	291.835217	1.463576	0.116892	0.000819	0.003059
0.000922	1.417678E-5	0.001907	1.533819E-5	219.644543	291.838427	33.211576	293.722107	1.337261	0.113801	0.000922	0.003090
0.001024	1.432264E-5	0.002100	1.545057E-5	241.948333	293.830439	32.785177	295.653843	1.221971	0.111579	0.001024	0.003122
0.001126	1.447372E-5	0.002314	1.556052E-5	266.513645	295.854899	32.606299	297.646253	1.116814	0.110210	0.001126	0.003155
0.001229	1.459687E-5	0.002549	1.566868E-5	293.574908	297.927323	32.677556	299.714051	1.020912	0.109683	0.001229	0.003182
0.001331	1.470699E-5	0.002807	1.577577E-5	323.378786	300.063376	33.001528	301.872706	0.933496	0.109982	0.001331	0.003206
0.001434	1.479805E-5	0.003092	1.588252E-5	356.212050	302.277220	33.580722	304.136782	0.853808	0.111092	0.001434	0.003226
0.001536	1.488998E-5	0.003406	1.598968E-5	392.380167	304.582183	34.417688	306.520608	0.781183	0.113000	0.001536	0.003246
0.001638	1.500153E-5	0.003752	1.609810E-5	432.218056	306.991370	35.515248	309.038887	0.715007	0.115688	0.001638	0.003270
0.001843	1.514479E-5	0.004133	1.620860E-5	476.104734	309.516469	36.876371	311.705488	0.654699	0.119142	0.001843	0.003301
0.002048	1.530304E-5	0.004553	1.632208E-5	524.442495	312.169527	38.504577	314.535238	0.599752	0.123345	0.002048	0.003336
0.002253	1.546245E-5	0.005015	1.643943E-5	577.696423	314.960848	40.403649	317.541794	0.549669	0.128281	0.002253	0.003371
0.002458	1.559991E-5	0.005524	1.656160E-5	636.351603	317.900928	42.577784	320.739564	0.504029	0.133934	0.002458	0.003401
0.002662	1.572256E-5	0.006085	1.668962E-5	700.958247	321.000074	45.032121	324.143393	0.462429	0.140287	0.002662	0.003427
0.002867	1.582907E-5	0.006703	1.682450E-5	772.129638	324.267714	47.772342	327.767825	0.424498	0.147324	0.002867	0.003451
0.003072	1.594369E-5	0.007384	1.696733E-5	850.528076	327.712865	50.804568	331.627541	0.389908	0.155028	0.003072	0.003476
0.003277	1.607876E-5	0.008133	1.711923E-5	936.879010	331.345324	54.136230	335.738671	0.358359	0.163383	0.003277	0.003505
0.003686	1.622831E-5	0.008959	1.728141E-5	1032.011930	335.173264	57.775234	340.116295	0.329566	0.172374	0.003686	0.003538
0.004096	1.638193E-5	0.009869	1.745508E-5	1136.797096	339.205544	61.730174	344.776762	0.303288	0.181985	0.004096	0.003571
0.004506	1.653412E-5	0.010871	1.764156E-5	1252.215520	343.450934	66.010913	349.737022	0.279295	0.192199	0.004506	0.003604
0.004915	1.666018E-5	0.011974	1.784222E-5	1379.346324	347.919050	70.628891	355.015642	0.257380	0.203004	0.004915	0.003632
0.005325	1.678265E-5	0.013190	1.805854E-5	1519.407546	352.617871	75.595950	360.630158	0.237349	0.214385	0.005325	0.003658
0.005734	1.688601E-5	0.014529	1.829202E-5	1673.681135	357.556431	80.924815	366.599819	0.219038	0.226327	0.005734	0.003681
0.006144	1.698431E-5	0.016005	1.854430E-5	1843.607024	362.744533	86.630240	372.945566	0.202291	0.238819	0.006144	0.003702
0.006554	1.708981E-5	0.017630	1.881709E-5	2030.794056	368.191116	92.727822	379.688224	0.186965	0.251847	0.006554	0.003725
0.007373	1.720679E-5	0.019420	1.911232E-5	2236.970344	373.907809	99.235687	386.852389	0.172936	0.265401	0.007373	0.003751
0.008192	1.734116E-5	0.021391	1.943186E-5	2464.134524	379.902082	106.171379	394.459065	0.160080	0.279470	0.008192	0.003780
0.009011	1.749982E-5	0.023563	1.977796E-5	2714.299975	386.187072	113.555515	402.536097	0.148302	0.294043	0.009011	0.003815
0.009830	1.765287E-5	0.025956	2.015288E-5	2989.895261	392.773496	121.410821	411.110212	0.137500	0.309112	0.009830	0.003848
0.010650	1.781976E-5	0.028591	2.055912E-5	3293.483579	399.672146	129.760147	420.208900	0.127588	0.324666	0.010650	0.003885
0.011469	1.796886E-5	0.031494	2.099929E-5	3627.849478	406.898148	138.630759	429.865781	0.118491	0.340701	0.011469	0.003917
0.012288	1.811473E-5	0.034692	2.147637E-5	3996.240364	414.462102	148.049878	440.110896	0.110131	0.357210	0.012288	0.003949
0.013107	1.826742E-5	0.038214	2.199348E-5	4401.984791	422.378905	158.047224	450.979893	0.102449	0.374184	0.013107	0.003982
0.014746	1.841980E-5	0.042094	2.255411E-5	4848.902794	430.664973	168.657082	462.512194	0.095385	0.391620	0.014746	0.004015
0.016384	1.858430E-5	0.046368	2.316197E-5	5341.263888	439.333382	179.913450	474.744847	0.088882	0.409515	0.016384	0.004051
0.018022	1.879332E-5	0.051076	2.382127E-5	5883.531010	448.402887	191.854938	487.722735	0.082896	0.427863	0.018022	0.004097
0.019661	1.905799E-5	0.056261	2.453639E-5	6480.868360	457.891532	204.523919	501.492461	0.077380	0.446665	0.019661	0.004154
0.021299	1.940563E-5	0.061974	2.531240E-5	7138.894926	467.817619	217.964769	516.102669	0.072294	0.465918	0.021299	0.004230
0.022938	1.974027E-5	0.068267	2.615467E-5	7863.734492	478.202426	232.226527	531.607675	0.067602	0.485624	0.022938	0.004303
0.024576	2.005343E-5	0.075197	2.706904E-5	8662.247487	489.063662	247.358632	548.059813	0.063270	0.505780	0.024576	0.004371
0.026214	2.036304E-5	0.082832	2.806239E-5	9541.657354	500.428882	263.420124	565.525620	0.059269	0.526389	0.026214	0.004439
0.029491	2.070149E-5	0.091244	2.914188E-5	10510.504017	512.319414	280.471547	584.068036	0.055570	0.547454	0.029491	0.004513
0.032768	2.108879E-5	0.100507	3.031522E-5	11577.707016	524.759786	298.576769	603.755679	0.052148	0.568978	0.032768	0.004597
0.036045	2.155866E-5	0.110712	3.159173E-5	12753.138099	537.780280	317.809410	624.668272	0.048982	0.590965	0.036045	0.004700
0.039322	2.206074E-5	0.121953	3.298099E-5	14048.042433	551.406505	338.244932	646.883891	0.046048	0.613422	0.039322	0.004809
0.042598	2.257257E-5	0.134334	3.449361E-5	15474.318250	565.670827	359.967404	670.492369	0.043329	0.636355	0.042598	0.004921
0.045875	2.297360E-5	0.147976	3.614230E-5	17045.449971	580.606139	383.068608	695.589712	0.040808	0.659774	0.045875	0.005008
0.049152	2.340565E-5	0.162999	3.793957E-5	18776.253651	596.243076	407.643306	722.273405	0.038467	0.683686	0.049152	0.005102
0.052429	2.392537E-5	0.179549	3.990071E-5	20682.622991	612.619124	433.797559	750.654723	0.036294	0.708103	0.052429	0.005215
0.058982	2.460341E-5	0.197779	4.204195E-5	22782.503273	629.773759	461.648497	780.854866	0.034274	0.733039	0.058982	0.005363
0.065536	2.548354E-5	0.217859	4.438139E-5	25095.769037	647.743723	491.318151	812.997820	0.032396	0.758507	0.065536	0.005555
0.072090	2.643068E-5	0.239982	4.693984E-5	27643.788130	666.574988	522.945091	847.227114	0.030648	0.784526	0.072090	0.005762
0.078643	2.729134E-5	0.264346	4.973878E-5	30450.877959	686.301577	556.666297	883.678233	0.029020	0.811110	0.078643	0.005949
0.085197	2.819445E-5	0.291183	5.280360E-5	33542.188937	706.982271	592.651968	922.529288	0.027504	0.838284	0.085197	0.006146
0.091750	2.893299E-5	0.320748	5.616238E-5	36948.127244	728.655671	631.069538	963.943903	0.026089	0.866074	0.091750	0.006307
0.098304	2.974907E-5	0.353318	5.984600E-5	40699.694771	751.371158	672.103297	1008.107861	0.024769	0.894502	0.098304	0.006485
0.104858	3.079008E-5	0.389188	6.388747E-5	44831.769643	775.182644	715.960100	1055.228409	0.023538	0.923602	0.104858	0.006712
0.117965	3.209764E-5	0.428706	6.832614E-5	49383.351055	800.144982	762.866105	1105.530048	0.022387	0.953410	0.117965	0.006997
0.131072	3.369044E-5	0.472235	7.320332E-5	54397.442837	826.309241	813.060592	1159.247379	0.021311	0.983966	0.131072	0.007344
0.144179	3.544626E-5	0.520183	7.856556E-5	59920.557647	853.737426	866.815544	1216.649818	0.020304	1.015319	0.144179	0.007727
0.157286	3.705135E-5	0.572993	8.446402E-5	66005.479212	882.470357	924.400669	1277.994729	0.019362	1.047515	0.157286	0.008077
0.170394	3.861656E-5	0.631176	9.095765E-5	72706.627247	912.578084	986.142726	1343.605684	0.018480	1.080612	0.170394	0.008418
0.183501	4.013912E-5	0.695256	9.810704E-5	80088.644052	944.109470	1052.380225	1413.805796	0.017653	1.114680	0.183501	0.008750
0.399814	6.562982E-5	0.765850	0.000106	88219.650280	977.129334	1123.501407	1488.971842	0.016878	1.149798	0.399814	0.014307
0.599721	8.861247E-5	0.843605	0.000115	97177.590021	1011.682788	1199.910410	1569.486239	0.016151	1.186054	0.599721	0.019317
0.799628	0.000111	0.929272	0.000124	107045.115823	1047.811936	1282.041992	1655.760104	0.015468	1.223542	0.799628	0.024216
0.999536	0.000133	1.023622	0.000135	117912.428715	1085.578557	1370.411868	1748.287588	0.014827	1.262379	0.999536	0.029060
1.199440	0.000155	1.127548	0.000146	129884.563496	1125.017749	1465.563997	1847.577540	0.014225	1.302703	1.199440	0.033842
1.399350	0.000181	1.242026	0.000159	143073.479711	1166.151927	1568.078849	1954.170308	0.013659	1.344661	1.399350	0.039542
1.599260	0.000204	1.368126	0.000173	157600.229042	1209.001354	1678.605040	2068.670866	0.013126	1.388423	1.599260	0.044380
1.799160	0.000227	1.507036	0.000189	173599.622222	1253.597813	1797.907583	2191.798155	0.012626	1.434198	1.799160	0.049498
1.999070	0.000244	1.660066	0.000206	191227.620917	1299.908089	1926.750995	2324.248360	0.012154	1.482221	1.999070	0.053217
2.198980	0.000265	1.828622	0.000225	210642.363484	1347.933612	2066.060045	2466.886526	0.011711	1.532761	2.198980	0.057768
2.398880	0.000284	2.014295	0.000246	232030.545093	1397.621666	2216.821250	2620.618777	0.011294	1.586138	2.398880	0.061908
2.598790	0.000301	2.218796	0.000268	255588.212597	1448.939544	2380.210679	2786.544218	0.010902	1.642726	2.598790	0.065509
2.798700	0.000315	2.444075	0.000293	281540.260975	1501.811628	2557.526677	2965.869328	0.010534	1.702961	2.798700	0.068708
2.998610	0.000358	2.692210	0.000321	310122.119953	1556.234299	2750.436019	3160.184091	0.010190	1.767366	2.998610	0.077981
3.198510	0.000369	2.965596	0.000350	341611.665692	1612.206579	2960.928780	3371.395748	0.009869	1.836569	3.198510	0.080445
3.398420	0.000395	3.266686	0.000383	376299.722348	1669.850173	3191.584697	3602.028939	0.009572	1.911300	3.398420	0.086194
