MicroRheology Analysis v9.2.8
10/03/18 5:28:44 PM

Correlation Mode:	Cross
Geometry:	Transmission
Multi-Tau Duration (s):	120
Echo Duration (s):	60
Wavelength (nm):	685.0
Temperature (°C):	29.98
Cuvette Thickness (mm):	10.00
Absorption Length (mm):	Inf
Solvent:	Water
Solvent Refractive Index:	1.329
Particle Radius (nm):	300.0
Mean Count Rate (kHz):	117.2
l* (microns):	546.72



Lag Time (s)	Mean Square Displacement (micron^2)	Fit Lag Time (s)	Mean Square Displacement Fit (micron^2)	Frequency(rad/s)	G1 (Pa)	G2 (Pa)	G* (Pa)	Complex Viscosity (Pa s)	Loss Tangent (-)	Time (s)	Creep Compliance (1/Pa)

1.312500E-6	7.519567E-7	1.312511E-6	7.409536E-7	0.106432	2.605304	18.979544	19.157524	179.997741	7.284965	1.312500E-6	0.000169
1.412500E-6	7.508115E-7	1.430733E-6	7.939329E-7	0.116018	3.053430	20.549388	20.775004	179.067280	6.729937	1.412500E-6	0.000169
1.512500E-6	7.796800E-7	1.559630E-6	8.496877E-7	0.126468	3.585673	22.231593	22.518899	178.059391	6.200117	1.512500E-6	0.000176
1.612500E-6	8.385861E-7	1.700102E-6	9.082831E-7	0.137862	4.212327	24.028553	24.394980	176.951631	5.704342	1.612500E-6	0.000189
1.812500E-6	9.575044E-7	1.853245E-6	9.698322E-7	0.150279	4.944712	25.943601	26.410615	175.743473	5.246737	1.812500E-6	0.000216
2.012500E-6	1.075705E-6	2.020202E-6	1.034428E-6	0.163818	5.794472	27.977402	28.571155	174.407541	4.828292	2.012500E-6	0.000242
2.212500E-6	1.234175E-6	2.202173E-6	1.102147E-6	0.178574	6.774016	30.131023	30.883099	172.942664	4.448029	2.212500E-6	0.000278
2.412500E-6	1.349316E-6	2.400558E-6	1.173100E-6	0.194661	7.896079	32.403438	33.351624	171.331924	4.103738	2.412500E-6	0.000304
2.612500E-6	1.378639E-6	2.616763E-6	1.247354E-6	0.212195	9.173886	34.793141	35.982257	169.571443	3.792628	2.612500E-6	0.000310
2.812500E-6	1.349423E-6	2.852515E-6	1.325043E-6	0.231311	10.620527	37.296128	38.778819	167.648009	3.511702	2.812500E-6	0.000304
3.012500E-6	1.261799E-6	3.109474E-6	1.406228E-6	0.252144	12.249725	39.908748	41.746424	165.565649	3.257930	3.012500E-6	0.000284
3.212500E-6	1.290458E-6	3.389551E-6	1.491001E-6	0.274859	14.074593	42.623965	44.887599	163.311203	3.028433	3.212500E-6	0.000291
3.612500E-6	1.461732E-6	3.694875E-6	1.579467E-6	0.299619	16.107645	45.433394	48.204248	160.884939	2.820611	3.612500E-6	0.000329
4.012500E-6	1.675848E-6	4.027750E-6	1.671722E-6	0.326604	18.361985	48.329033	51.699690	158.294696	2.632016	4.012500E-6	0.000377
4.412500E-6	1.786536E-6	4.390493E-6	1.767811E-6	0.356029	20.848493	51.297751	55.372546	155.528115	2.460502	4.412500E-6	0.000402
4.812500E-6	1.891272E-6	4.786025E-6	1.867876E-6	0.388096	23.578120	54.327952	59.223763	152.600778	2.304168	4.812500E-6	0.000426
5.212500E-6	1.956202E-6	5.217185E-6	1.971972E-6	0.423056	26.560315	57.404741	63.251518	149.511071	2.161297	5.212500E-6	0.000441
5.612500E-6	2.030344E-6	5.687126E-6	2.080165E-6	0.461166	29.803000	60.512162	67.453247	146.266864	2.030405	5.612500E-6	0.000457
6.012500E-6	2.136401E-6	6.199388E-6	2.192541E-6	0.502710	33.311639	63.631768	71.823862	142.873241	1.910196	6.012500E-6	0.000481
6.412500E-6	2.232441E-6	6.757793E-6	2.309172E-6	0.547986	37.091817	66.746821	76.360598	139.347779	1.799503	6.412500E-6	0.000503
7.212500E-6	2.346654E-6	7.366558E-6	2.430138E-6	0.597354	41.145441	69.836253	81.055842	135.691540	1.697302	7.212500E-6	0.000528
8.012500E-6	2.513835E-6	8.030095E-6	2.555474E-6	0.651167	45.472187	72.879462	85.901896	131.919855	1.602726	8.012500E-6	0.000566
8.812500E-6	2.699695E-6	8.753536E-6	2.685270E-6	0.709825	50.069888	75.855432	90.890265	128.046071	1.514991	8.812500E-6	0.000608
9.612500E-6	2.825479E-6	9.542017E-6	2.819531E-6	0.773765	54.933281	78.742078	96.010313	124.082017	1.433413	9.612500E-6	0.000636
1.041250E-5	2.968001E-6	1.040156E-5	2.958324E-6	0.843453	60.056243	81.519036	101.252682	120.045446	1.357378	1.041250E-5	0.000668
1.121250E-5	3.058430E-6	1.133841E-5	3.101659E-6	0.919431	65.429302	84.164502	106.605145	115.946906	1.286343	1.121250E-5	0.000689
1.201250E-5	3.198815E-6	1.235991E-5	3.249614E-6	1.002264	71.038305	86.656176	112.052370	111.799299	1.219851	1.201250E-5	0.000720
1.281250E-5	3.298457E-6	1.347325E-5	3.402145E-6	1.092530	76.870984	88.976538	117.583896	107.625279	1.157479	1.281250E-5	0.000743
1.441250E-5	3.483146E-6	1.468687E-5	3.559281E-6	1.190963	82.908021	91.103904	123.181416	103.430117	1.098855	1.441250E-5	0.000784
1.601250E-5	3.649233E-6	1.600997E-5	3.721038E-6	1.298227	89.132228	93.023203	128.832723	99.237405	1.043654	1.601250E-5	0.000822
1.761250E-5	3.832632E-6	1.745207E-5	3.887360E-6	1.415184	95.520985	94.716609	134.519495	95.054442	0.991579	1.761250E-5	0.000863
1.921250E-5	4.002449E-6	1.902405E-5	4.058238E-6	1.542651	102.052825	96.171702	140.227584	90.900410	0.942372	1.921250E-5	0.000901
2.081250E-5	4.151880E-6	2.073793E-5	4.233669E-6	1.681624	108.702400	97.375339	145.938920	86.784492	0.895798	2.081250E-5	0.000935
2.241250E-5	4.284661E-6	2.260599E-5	4.413550E-6	1.833101	115.444356	98.318513	151.637493	82.721863	0.851653	2.241250E-5	0.000965
2.401250E-5	4.479037E-6	2.464193E-5	4.597802E-6	1.998218	122.253526	98.994265	157.307944	78.724115	0.809746	2.401250E-5	0.001009
2.561250E-5	4.695035E-6	2.686198E-5	4.786443E-6	2.178240	129.101424	99.396809	162.932205	74.799921	0.769913	2.561250E-5	0.001057
2.881250E-5	4.941790E-6	2.928164E-5	4.979293E-6	2.374450	135.961117	99.524650	168.495048	70.961717	0.732008	2.881250E-5	0.001113
3.201250E-5	5.190970E-6	3.191921E-5	5.176271E-6	2.588323	142.805936	99.377993	173.981381	67.217799	0.695895	3.201250E-5	0.001169
3.521250E-5	5.425298E-6	3.479459E-5	5.377277E-6	2.821458	149.610655	98.959845	179.377811	63.576274	0.661449	3.521250E-5	0.001222
3.841250E-5	5.617376E-6	3.792902E-5	5.582164E-6	3.075651	156.346968	98.274308	184.667848	60.041875	0.628565	3.841250E-5	0.001265
4.161250E-5	5.828362E-6	4.134499E-5	5.790732E-6	3.352674	162.991810	97.330216	189.840725	56.623669	0.597148	4.161250E-5	0.001313
4.481250E-5	6.025677E-6	4.506963E-5	6.002921E-6	3.654698	169.520635	96.136208	194.883083	53.323990	0.567106	4.481250E-5	0.001357
4.801250E-5	6.243528E-6	4.912970E-5	6.218492E-6	3.983899	175.911242	94.704429	199.784119	50.147881	0.538365	4.801250E-5	0.001406
5.121250E-5	6.449037E-6	5.355496E-5	6.437231E-6	4.342728	182.144578	93.048402	204.535211	47.098322	0.510849	5.121250E-5	0.001452
5.761250E-5	6.704660E-6	5.837886E-5	6.658958E-6	4.733939	188.201438	91.182575	209.126860	44.176076	0.484495	5.761250E-5	0.001510
6.401250E-5	6.968423E-6	6.363821E-5	6.883489E-6	5.160384	194.064747	89.123657	213.551287	41.382831	0.459247	6.401250E-5	0.001569
7.041250E-5	7.249975E-6	6.937077E-5	7.110527E-6	5.625187	199.722128	86.889340	217.804238	38.719465	0.435051	7.041250E-5	0.001633
7.681250E-5	7.515534E-6	7.561870E-5	7.339811E-6	6.131990	205.159607	84.497231	221.878901	36.183832	0.411861	7.681250E-5	0.001692
8.321250E-5	7.752530E-6	8.243147E-5	7.571182E-6	6.684356	210.367176	81.967247	225.771961	33.776170	0.389639	8.321250E-5	0.001746
8.961250E-5	7.931472E-6	8.985581E-5	7.804234E-6	7.286383	215.339679	79.318567	229.483360	31.494827	0.368342	8.961250E-5	0.001786
9.601250E-5	8.139326E-6	9.795060E-5	8.038796E-6	7.942862	220.069096	76.570052	233.009399	29.335698	0.347936	9.601250E-5	0.001833
0.000102	8.371674E-6	0.000107	8.274492E-6	8.658276	224.553856	73.742294	236.352195	27.297835	0.328395	0.000102	0.001885
0.000115	8.629801E-6	0.000116	8.511058E-6	9.438250	228.791695	70.853965	239.511845	25.376723	0.309688	0.000115	0.001943
0.000128	8.925934E-6	0.000127	8.748234E-6	10.288346	232.784639	67.924367	242.492078	23.569588	0.291791	0.000128	0.002010
0.000141	9.213413E-6	0.000138	8.985555E-6	11.215170	236.534496	64.971451	245.295449	21.871755	0.274681	0.000141	0.002075
0.000154	9.442772E-6	0.000151	9.222835E-6	12.225407	240.045782	62.013325	247.926662	20.279625	0.258340	0.000154	0.002126
0.000166	9.660408E-6	0.000164	9.459664E-6	13.326628	243.324483	59.066741	250.391062	18.788778	0.242749	0.000166	0.002175
0.000179	9.843911E-6	0.000179	9.695774E-6	14.527044	246.378173	56.147578	252.694983	17.394797	0.227892	0.000179	0.002217
0.000192	1.002621E-5	0.000195	9.930774E-6	15.835698	249.214905	53.270880	254.844768	16.093056	0.213755	0.000192	0.002258
0.000205	1.023712E-5	0.000213	1.016434E-5	17.262122	251.844894	50.450693	256.848443	14.879308	0.200324	0.000205	0.002305
0.000230	1.047662E-5	0.000232	1.039615E-5	18.817233	254.277746	47.699979	258.713085	13.748731	0.187590	0.000230	0.002359
0.000256	1.071979E-5	0.000253	1.062587E-5	20.512047	256.526181	45.030557	260.448522	12.697344	0.175540	0.000256	0.002414
0.000282	1.097277E-5	0.000276	1.085319E-5	22.360109	258.600918	42.452919	262.062369	11.720084	0.164164	0.000282	0.002471
0.000307	1.118334E-5	0.000301	1.107775E-5	24.374286	260.514800	39.977307	263.564311	10.813212	0.153455	0.000307	0.002518
0.000333	1.137812E-5	0.000328	1.129929E-5	26.569898	262.280207	37.612285	264.963377	9.972314	0.143405	0.000333	0.002562
0.000358	1.153692E-5	0.000357	1.151748E-5	28.962823	263.910926	35.365350	266.269947	9.193508	0.134005	0.000358	0.002598
0.000384	1.170573E-5	0.000389	1.173201E-5	31.571823	265.419594	33.242943	267.493279	8.472532	0.125247	0.000384	0.002636
0.000410	1.188768E-5	0.000424	1.194263E-5	34.415802	266.819452	31.251071	268.643350	7.805814	0.117124	0.000410	0.002677
0.000461	1.210581E-5	0.000463	1.214904E-5	37.516211	268.123059	29.394823	269.729550	7.189680	0.109632	0.000461	0.002726
0.000512	1.232691E-5	0.000504	1.235105E-5	40.895255	269.344035	27.678248	270.762432	6.620876	0.102762	0.000512	0.002776
0.000563	1.252835E-5	0.000550	1.254838E-5	44.579816	270.494049	26.104828	271.750791	6.095826	0.096508	0.000563	0.002821
0.000614	1.268483E-5	0.000599	1.274085E-5	48.595021	271.585947	24.677642	272.704808	5.611785	0.090865	0.000614	0.002857
0.000666	1.282501E-5	0.000653	1.292821E-5	52.972077	272.631892	23.398546	273.634136	5.165630	0.085825	0.000666	0.002888
0.000717	1.294283E-5	0.000712	1.311035E-5	57.744423	273.643106	22.269371	274.547763	4.754533	0.081381	0.000717	0.002915
0.000768	1.306810E-5	0.000776	1.328705E-5	62.946270	274.630671	21.291633	275.454786	4.376030	0.077528	0.000768	0.002943
0.000819	1.321780E-5	0.000846	1.345820E-5	68.615634	275.605711	20.466139	276.364561	4.027720	0.074259	0.000819	0.002977
0.000922	1.337125E-5	0.000922	1.362373E-5	74.796489	276.578510	19.793377	277.285863	3.707204	0.071565	0.000922	0.003011
0.001024	1.353957E-5	0.001005	1.378350E-5	81.534937	277.558619	19.273818	278.227007	3.412365	0.069441	0.001024	0.003049
0.001126	1.370255E-5	0.001096	1.393747E-5	88.879031	278.555650	18.907650	279.196614	3.141310	0.067877	0.001126	0.003086
0.001229	1.383663E-5	0.001195	1.408563E-5	96.884563	279.578686	18.694823	280.203030	2.892133	0.066868	0.001229	0.003116
0.001331	1.396313E-5	0.001302	1.422790E-5	105.612090	280.636276	18.635279	281.254321	2.663088	0.066404	0.001331	0.003144
0.001434	1.407986E-5	0.001420	1.436436E-5	115.126854	281.736253	18.728910	282.358085	2.452582	0.066477	0.001434	0.003171
0.001536	1.418712E-5	0.001548	1.449506E-5	125.496901	282.886557	18.975591	283.522270	2.259197	0.067078	0.001536	0.003195
0.001638	1.431246E-5	0.001687	1.461999E-5	136.801529	284.094502	19.375245	284.754431	2.081515	0.068200	0.001638	0.003223
0.001843	1.445323E-5	0.001839	1.473928E-5	149.124772	285.366911	19.927824	286.061868	1.918272	0.069832	0.001843	0.003255
0.002048	1.459318E-5	0.002005	1.485305E-5	162.556590	286.710729	20.633493	287.452228	1.768321	0.071966	0.002048	0.003286
0.002253	1.473190E-5	0.002185	1.496140E-5	177.200926	288.131870	21.492442	288.932344	1.630535	0.074592	0.002253	0.003318
0.002458	1.485384E-5	0.002382	1.506455E-5	193.161591	289.636619	22.505048	290.509635	1.503972	0.077701	0.002458	0.003345
0.002662	1.496019E-5	0.002597	1.516266E-5	210.560767	291.230705	23.671991	292.191182	1.387681	0.081283	0.002662	0.003369
0.002867	1.505083E-5	0.002831	1.525593E-5	229.527432	292.919903	24.994225	293.984320	1.280824	0.085328	0.002867	0.003389
0.003072	1.514224E-5	0.003086	1.534460E-5	250.206645	294.709019	26.472679	295.895604	1.182605	0.089826	0.003072	0.003410
0.003277	1.523403E-5	0.003363	1.542894E-5	272.744616	296.603334	28.108504	297.932250	1.092349	0.094768	0.003277	0.003431
0.003686	1.533824E-5	0.003666	1.550919E-5	297.310771	298.608315	29.903651	300.101906	1.009388	0.100143	0.003686	0.003454
0.004096	1.545664E-5	0.003997	1.558566E-5	324.095640	300.728304	31.859991	302.411263	0.933093	0.105943	0.004096	0.003481
0.004506	1.557128E-5	0.004357	1.565869E-5	353.290157	302.968144	33.979537	304.867685	0.862939	0.112155	0.004506	0.003507
0.004915	1.566898E-5	0.004749	1.572858E-5	385.112393	305.332815	36.265079	307.478916	0.798413	0.118772	0.004915	0.003529
0.005325	1.575652E-5	0.005177	1.579569E-5	419.803838	307.826833	38.719632	310.252428	0.739041	0.125784	0.005325	0.003548
0.005734	1.582170E-5	0.005643	1.586039E-5	457.620342	310.454431	41.346174	313.195561	0.684400	0.133180	0.005734	0.003563
0.006144	1.589998E-5	0.006152	1.592309E-5	498.835144	313.221076	44.148715	316.317169	0.634112	0.140951	0.006144	0.003581
0.006554	1.599772E-5	0.006706	1.598416E-5	543.769627	316.131135	47.131633	319.625226	0.587795	0.149089	0.006554	0.003603
0.007373	1.612135E-5	0.007310	1.604403E-5	592.752660	319.189265	50.299280	323.128155	0.545132	0.157584	0.007373	0.003630
0.008192	1.625060E-5	0.007968	1.610315E-5	646.146751	322.400973	53.657096	326.835541	0.505822	0.166430	0.008192	0.003660
0.009011	1.635218E-5	0.008686	1.616194E-5	704.363481	325.769973	57.210154	330.755313	0.469580	0.175615	0.009011	0.003682
0.009830	1.641370E-5	0.009469	1.622090E-5	767.811385	329.301506	60.963910	334.897118	0.436171	0.185131	0.009830	0.003696
0.010650	1.646335E-5	0.010322	1.628048E-5	836.963340	333.002212	64.925917	339.272527	0.405361	0.194971	0.010650	0.003707
0.011469	1.649911E-5	0.011251	1.634117E-5	912.365166	336.875997	69.103011	343.890482	0.376922	0.205129	0.011469	0.003716
0.012288	1.655499E-5	0.012265	1.640349E-5	994.546204	340.929190	73.502591	348.762589	0.350675	0.215595	0.012288	0.003728
0.013107	1.661417E-5	0.013370	1.646798E-5	1084.132120	345.167976	78.133531	353.900806	0.326437	0.226364	0.013107	0.003741
0.014746	1.665453E-5	0.014574	1.653514E-5	1181.799662	349.597071	83.004016	359.315709	0.304041	0.237428	0.014746	0.003751
0.016384	1.670595E-5	0.015887	1.660553E-5	1288.241681	354.224194	88.123899	365.021371	0.283349	0.248780	0.016384	0.003762
0.018022	1.678718E-5	0.017318	1.667974E-5	1404.281438	359.056482	93.504513	371.031873	0.264215	0.260417	0.018022	0.003780
0.019661	1.689569E-5	0.018878	1.675834E-5	1530.800000	364.098680	99.155675	377.358843	0.246511	0.272332	0.019661	0.003805
0.021299	1.704704E-5	0.020578	1.684193E-5	1668.679248	369.360467	105.089873	384.019578	0.230134	0.284518	0.021299	0.003839
0.022938	1.719989E-5	0.022432	1.693112E-5	1819.006379	374.847855	111.319752	391.028134	0.214968	0.296973	0.022938	0.003873
0.024576	1.735058E-5	0.024453	1.702661E-5	1982.857831	380.569920	117.858967	398.402059	0.200923	0.309691	0.024576	0.003907
0.026214	1.750761E-5	0.026655	1.712899E-5	2161.479338	386.533865	124.721623	406.157496	0.187907	0.322667	0.026214	0.003943
0.029491	1.764445E-5	0.029056	1.723901E-5	2356.161694	392.749932	131.923739	414.314351	0.175843	0.335898	0.029491	0.003973
0.032768	1.778365E-5	0.031674	1.735736E-5	2568.391548	399.227141	139.482335	422.891986	0.164652	0.349381	0.032768	0.004005
0.036045	1.790786E-5	0.034527	1.748479E-5	2799.741088	405.975892	147.415575	431.911769	0.154268	0.363114	0.036045	0.004033
0.039322	1.803501E-5	0.037637	1.762204E-5	3051.951508	413.005972	155.742355	441.395077	0.144627	0.377095	0.039322	0.004061
0.042598	1.819850E-5	0.041027	1.776999E-5	3326.882190	420.327296	164.482059	451.363914	0.135672	0.391319	0.042598	0.004098
0.045875	1.833750E-5	0.044723	1.792947E-5	3626.536677	427.953617	173.657772	461.845559	0.127352	0.405786	0.045875	0.004130
0.049152	1.847711E-5	0.048752	1.810139E-5	3953.228534	435.895369	183.292480	472.864574	0.119615	0.420497	0.049152	0.004161
0.052429	1.863103E-5	0.053143	1.828662E-5	4309.334464	444.165629	193.410761	484.448995	0.112419	0.435447	0.052429	0.004196
0.058982	1.879627E-5	0.057930	1.848624E-5	4697.511913	452.777769	204.039340	496.628392	0.105722	0.450639	0.058982	0.004233
0.065536	1.903727E-5	0.063148	1.870123E-5	5120.650346	461.746389	215.207154	509.434831	0.099486	0.466072	0.065536	0.004287
0.072090	1.927331E-5	0.068837	1.893274E-5	5581.925214	471.086634	226.945225	522.902239	0.093678	0.481748	0.072090	0.004340
0.078643	1.948912E-5	0.075038	1.918193E-5	6084.795589	480.811430	239.284142	537.062875	0.088263	0.497667	0.078643	0.004389
0.085197	1.975648E-5	0.081797	1.945005E-5	6632.877942	490.940372	252.260488	551.958153	0.083215	0.513831	0.085197	0.004449
0.091750	1.992058E-5	0.089165	1.973846E-5	7230.403666	501.486239	265.909063	567.623183	0.078505	0.530242	0.091750	0.004486
0.098304	2.009519E-5	0.097197	2.004859E-5	7881.607446	512.474443	280.274731	584.109562	0.074110	0.546905	0.098304	0.004525
0.104858	2.035129E-5	0.105952	2.038190E-5	8591.730459	523.915401	295.395708	601.453217	0.070004	0.563823	0.104858	0.004583
0.117965	2.065354E-5	0.115496	2.074013E-5	9365.637320	535.832347	311.317892	619.705684	0.066168	0.580999	0.117965	0.004651
0.131072	2.106042E-5	0.125899	2.112494E-5	10209.227906	548.247933	328.093291	638.921751	0.062583	0.598440	0.131072	0.004743
0.144179	2.152843E-5	0.137242	2.153838E-5	11128.941377	561.178246	345.770399	659.149598	0.059228	0.616151	0.144179	0.004848
0.157286	2.139560E-5	0.149603	2.198222E-5	12131.288474	574.653923	364.411305	680.457736	0.056091	0.634140	0.157286	0.004818
0.170394	2.211943E-5	0.163079	2.245889E-5	13224.242728	588.688211	384.069679	702.896385	0.053152	0.652416	0.170394	0.004981
0.183501	2.435867E-5	0.177772	2.297076E-5	14415.294150	603.314077	404.815119	726.541916	0.050401	0.670986	0.183501	0.005485
0.399815	2.803539E-5	0.193784	2.352019E-5	15713.828742	618.555267	426.718643	751.464848	0.047822	0.689863	0.399815	0.006313
0.599722	3.337293E-5	0.211241	2.411016E-5	17129.489755	634.433273	449.849930	777.734233	0.045403	0.709058	0.599722	0.007515
0.799629	4.068488E-5	0.230270	2.474361E-5	18672.406603	650.979173	474.291234	805.435322	0.043135	0.728581	0.799629	0.009162
0.999536	4.523170E-5	0.251010	2.542371E-5	20354.287881	668.223465	500.132593	834.658738	0.041007	0.748451	0.999536	0.010186
1.199440	5.082401E-5	0.273620	2.615414E-5	22187.888288	686.193456	527.466175	865.495249	0.039008	0.768684	1.199440	0.011445
1.399350	5.587503E-5	0.298269	2.693880E-5	24186.726844	704.913164	556.384831	898.034882	0.037129	0.789296	1.399350	0.012583
1.599260	6.130610E-5	0.325134	2.778169E-5	26365.035589	724.425618	587.007352	932.400186	0.035365	0.810307	1.599260	0.013806
1.799160	6.657655E-5	0.354427	2.868772E-5	28740.097610	744.755769	619.447010	968.697968	0.033705	0.831745	1.799160	0.014993
1.999070	7.194027E-5	0.386351	2.966148E-5	31329.092400	765.935339	653.826547	1007.048210	0.032144	0.853632	1.999070	0.016201
2.198980	7.707673E-5	0.421150	3.070861E-5	34151.094766	787.999890	690.283915	1047.585658	0.030675	0.875995	2.198980	0.017357
2.398890	8.265825E-5	0.459086	3.183509E-5	37227.337885	810.986758	728.971405	1090.458083	0.029292	0.898870	2.398890	0.018614
2.598790	8.836347E-5	0.500446	3.304756E-5	40581.238136	834.915357	770.031617	1135.795908	0.027988	0.922287	2.598790	0.019899
2.798700	9.332911E-5	0.545524	3.435274E-5	44236.063661	859.836298	813.651389	1183.785049	0.026761	0.946286	2.798700	0.021017
2.998610	9.962088E-5	0.594663	3.575861E-5	48220.826836	885.778904	860.017490	1234.598862	0.025603	0.970917	2.998610	0.022434
3.198520	0.000105	0.648235	3.727383E-5	52565.054287	912.766951	909.318565	1288.411332	0.024511	0.996222	3.198520	0.023602
3.398420	0.000110	0.706622	3.890725E-5	57299.786271	940.839862	961.778625	1345.435903	0.023481	1.022255	3.398420	0.024693
3.598330	0.000116	0.770281	4.066970E-5	62461.087083	970.030748	1017.640849	1405.899196	0.022508	1.049081	3.598330	0.026121
3.798240	0.000121	0.839657	4.257155E-5	68088.032973	1000.358153	1077.150376	1470.023593	0.021590	1.076765	3.798240	0.027265
3.998150	0.000125	0.915306	4.462616E-5	74221.157492	1031.852881	1140.589732	1538.071944	0.020723	1.105380	3.998150	0.028117
4.198050	0.000131	0.997741	4.684562E-5	80906.736516	1064.542282	1208.272445	1610.333063	0.019904	1.135016	4.198050	0.029520
4.397960	0.000137	1.087630	4.924611E-5	88195.761055	1098.424594	1280.502897	1687.075653	0.019129	1.165763	4.397960	0.030750
4.597870	0.000143	1.185603	5.184285E-5	96139.415912	1133.529458	1357.659485	1768.651551	0.018397	1.197728	4.597870	0.032181
4.797770	0.000147	1.292382	5.465341E-5	104799.642425	1169.849903	1440.123155	1855.398474	0.017704	1.231032	4.797770	0.033112
4.997680	0.000153	1.408799	5.769825E-5	114239.542917	1207.392111	1528.333944	1947.716703	0.017049	1.265814	4.997680	0.034519
5.197590	0.000159	1.535704	6.099842E-5	124531.527866	1246.120550	1622.727656	2045.986674	0.016429	1.302224	5.197590	0.035750
5.397500	0.000162	1.674050	6.457766E-5	135748.612916	1286.023363	1723.829212	2150.684367	0.015843	1.340434	5.397500	0.036535
5.597400	0.000169	1.824865	6.846173E-5	147977.302844	1327.041837	1832.172707	2262.276920	0.015288	1.380644	5.597400	0.038106
5.797310	0.000175	1.989217	7.267762E-5	161306.232763	1369.119249	1948.365406	2381.305371	0.014763	1.423079	5.797310	0.039395
5.997220	0.000180	2.168418	7.725875E-5	175835.724885	1412.169002	2073.066181	2508.350988	0.014265	1.468001	5.997220	0.040453
6.197120	0.000183	2.363755	8.223803E-5	191674.248620	1456.084199	2207.006058	2644.060691	0.013795	1.515713	6.197120	0.041164
6.397030	0.000186	2.576682	8.765297E-5	208941.677640	1500.711169	2350.956903	2789.109602	0.013349	1.566562	6.397030	0.041890
6.596940	0.000193	2.808759	9.354399E-5	227764.837431	1545.849451	2505.729902	2944.203265	0.012927	1.620940	6.596940	0.043481
6.796850	0.000196	3.061811	9.995857E-5	248277.598793	1591.318700	2672.348277	3110.263737	0.012527	1.679329	6.796850	0.044222
6.996750	0.000201	3.337568	0.000107	270645.122370	1636.798447	2851.778694	3288.122698	0.012149	1.742291	6.996750	0.045172
7.196660	0.000205	3.638225	0.000115	295024.368044	1681.964019	3045.150207	3478.784665	0.011792	1.810473	7.196660	0.046213
7.396570	0.000212	3.965984	0.000123	321597.775687	1726.419037	3253.735440	3683.383907	0.011453	1.884673	7.396570	0.047635
7.596480	0.000216	4.323185	0.000132	350567.887629	1769.672096	3478.912275	3903.148722	0.011134	1.965851	7.596480	0.048697
7.796380	0.000215	4.712640	0.000142	382151.594400	1811.109696	3722.100654	4139.341929	0.010832	2.055149	7.796380	0.048477
7.996290	0.000221	5.137139	0.000152	416569.731589	1850.106939	3985.118707	4393.639357	0.010547	2.153994	7.996290	0.049782
8.196200	0.000233	5.599913	0.000164	454096.832570	1885.827544	4269.824245	4667.734420	0.010279	2.264165	8.196200	0.052497
8.396110	0.000232	6.104322	0.000177	495000.051430	1917.398930	4578.533059	4963.807373	0.010028	2.387888	8.396110	0.052335
8.596010	0.000233	6.654274	0.000191	539594.159949	1943.777904	4913.890122	5284.372117	0.009793	2.528010	8.596010	0.052532
8.795920	0.000241	7.253608	0.000206	588200.079847	1963.877276	5279.312655	5632.757412	0.009576	2.688209	8.795920	0.054169
8.995830	0.000242	7.907109	0.000223	641177.826326	1976.588877	5679.538447	6013.656173	0.009379	2.873404	8.995830	0.054521
9.195730	0.000244	8.619362	0.000241	698942.550270	1980.754440	6120.931995	6433.443607	0.009205	3.090202	9.195730	0.054911
