MicroRheology Analysis v9.2.8
10/03/18 5:20:35 PM

Correlation Mode:	Cross
Geometry:	Transmission
Multi-Tau Duration (s):	120
Echo Duration (s):	60
Wavelength (nm):	685.0
Temperature (°C):	34.99
Cuvette Thickness (mm):	5.00
Absorption Length (mm):	89.897
Solvent:	Water
Solvent Refractive Index:	1.329
Particle Radius (nm):	300.0
Mean Count Rate (kHz):	602.4
l* (microns):	791.79



Lag Time (s)	Mean Square Displacement (micron^2)	Fit Lag Time (s)	Mean Square Displacement Fit (micron^2)	Frequency(rad/s)	G1 (Pa)	G2 (Pa)	G* (Pa)	Complex Viscosity (Pa s)	Loss Tangent (-)	Time (s)	Creep Compliance (1/Pa)

1.212500E-6	1.377713E-6	1.212501E-6	9.750272E-7	0.079400	1.184870	3.523926	3.717792	46.823518	2.974104	1.212500E-6	0.000305
1.312500E-6	1.102368E-6	1.314529E-6	1.062353E-6	0.086082	1.138422	3.781604	3.949244	45.877937	3.321795	1.312500E-6	0.000244
1.412500E-6	9.557000E-7	1.425111E-6	1.155087E-6	0.093323	1.095265	4.057840	4.203055	45.037611	3.704893	1.412500E-6	0.000212
1.512500E-6	9.376068E-7	1.545006E-6	1.253426E-6	0.101176	1.056006	4.354808	4.481015	44.289398	4.123846	1.512500E-6	0.000208
1.612500E-6	1.063359E-6	1.674994E-6	1.357524E-6	0.109687	1.021429	4.674977	4.785261	43.626366	4.576901	1.612500E-6	0.000236
1.812500E-6	1.339369E-6	1.815914E-6	1.467531E-6	0.118916	0.992398	5.020722	5.117861	43.037543	5.059184	1.812500E-6	0.000297
2.012500E-6	1.624041E-6	1.968686E-6	1.583600E-6	0.128919	0.969993	5.394758	5.481268	42.517055	5.561645	2.012500E-6	0.000360
2.212500E-6	1.971995E-6	2.134331E-6	1.705893E-6	0.139765	0.955445	5.799813	5.877985	42.056060	6.070273	2.212500E-6	0.000437
2.412500E-6	2.261106E-6	2.313923E-6	1.834547E-6	0.151526	0.950206	6.238535	6.310485	41.646139	6.565458	2.412500E-6	0.000501
2.612500E-6	2.341429E-6	2.508573E-6	1.969655E-6	0.164274	0.955999	6.713864	6.781586	41.282167	7.022880	2.612500E-6	0.000519
2.812500E-6	2.320623E-6	2.719615E-6	2.111394E-6	0.178093	0.974814	7.228962	7.294392	40.958362	7.415734	2.812500E-6	0.000514
3.012500E-6	2.217520E-6	2.948420E-6	2.259883E-6	0.193078	1.008913	7.786725	7.851815	40.666478	7.717935	3.012500E-6	0.000491
3.212500E-6	2.340743E-6	3.196476E-6	2.415236E-6	0.209324	1.060902	8.390145	8.456953	40.401353	7.908505	3.212500E-6	0.000519
3.612500E-6	2.575757E-6	3.465402E-6	2.577565E-6	0.226931	1.133773	9.042613	9.113413	40.159336	7.975684	3.612500E-6	0.000571
4.012500E-6	2.840697E-6	3.757000E-6	2.746998E-6	0.246025	1.230854	9.747101	9.824510	39.932999	7.918977	4.012500E-6	0.000629
4.412500E-6	3.047382E-6	4.073098E-6	2.923589E-6	0.266725	1.355875	10.506564	10.593691	39.717699	7.748920	4.412500E-6	0.000675
4.812500E-6	3.291093E-6	4.415765E-6	3.107429E-6	0.289163	1.513036	11.324232	11.424863	39.510094	7.484441	4.812500E-6	0.000729
5.212500E-6	3.560116E-6	4.787308E-6	3.298633E-6	0.313495	1.706893	12.202602	12.321403	39.303329	7.149014	5.212500E-6	0.000789
5.612500E-6	3.835917E-6	5.189991E-6	3.497191E-6	0.339870	1.942471	13.144346	13.287100	39.094607	6.766818	5.612500E-6	0.000850
6.012500E-6	4.126612E-6	5.626659E-6	3.703267E-6	0.368463	2.225239	14.151797	14.325678	38.879527	6.359676	6.012500E-6	0.000914
6.412500E-6	4.228999E-6	6.100019E-6	3.916842E-6	0.399461	2.561116	15.227041	15.440923	38.654415	5.945470	6.412500E-6	0.000937
7.212500E-6	4.387090E-6	6.613264E-6	4.137996E-6	0.433068	2.956431	16.371668	16.636465	38.415339	5.537646	7.212500E-6	0.000972
8.012500E-6	4.616084E-6	7.169746E-6	4.366753E-6	0.469506	3.417846	17.586630	17.915670	38.158574	5.145530	8.012500E-6	0.001023
8.812500E-6	5.003284E-6	7.772924E-6	4.603056E-6	0.509006	3.952392	18.872472	19.281898	37.881448	4.774950	8.812500E-6	0.001108
9.612500E-6	5.194305E-6	8.426877E-6	4.846961E-6	0.551828	4.567498	20.229369	20.738598	37.581643	4.428982	9.612500E-6	0.001151
1.041250E-5	5.505638E-6	9.135751E-6	5.098410E-6	0.598259	5.270634	21.656086	22.288240	37.255173	4.108820	1.041250E-5	0.001220
1.121250E-5	5.704192E-6	9.904427E-6	5.357462E-6	0.648587	6.069606	23.151410	23.933823	36.901468	3.814318	1.121250E-5	0.001264
1.201250E-5	5.987349E-6	1.073768E-5	5.623991E-6	0.703153	6.972349	24.713058	25.677790	36.518047	3.544438	1.201250E-5	0.001326
1.281250E-5	6.247625E-6	1.164115E-5	5.897994E-6	0.762319	7.986537	26.337371	27.521662	36.102570	3.297721	1.281250E-5	0.001384
1.441250E-5	6.574523E-6	1.262051E-5	6.179333E-6	0.826455	9.119683	28.019978	29.466723	35.654358	3.072473	1.441250E-5	0.001456
1.601250E-5	6.836610E-6	1.368228E-5	6.467955E-6	0.895973	10.379523	29.756409	31.514733	35.173752	2.866838	1.601250E-5	0.001515
1.761250E-5	7.182689E-6	1.483353E-5	6.763774E-6	0.971355	11.773278	31.540474	33.666178	34.658997	2.678988	1.761250E-5	0.001591
1.921250E-5	7.484521E-6	1.608152E-5	7.066606E-6	1.053093	13.306931	33.364050	35.919831	34.108873	2.507269	1.921250E-5	0.001658
2.081250E-5	7.789904E-6	1.743444E-5	7.376308E-6	1.141676	14.986985	35.220421	38.276465	33.526543	2.350067	2.081250E-5	0.001726
2.241250E-5	8.093682E-6	1.890130E-5	7.692760E-6	1.237742	16.818265	37.099545	40.733650	32.909639	2.205908	2.241250E-5	0.001793
2.401250E-5	8.444627E-6	2.049155E-5	8.015748E-6	1.341870	18.805217	38.992226	43.290067	32.260989	2.073479	2.401250E-5	0.001871
2.561250E-5	8.894414E-6	2.221537E-5	8.345027E-6	1.454770	20.950980	40.887460	45.942659	31.580711	1.951577	2.561250E-5	0.001970
2.881250E-5	9.385239E-6	2.408443E-5	8.680457E-6	1.577158	23.257955	42.774420	48.688638	30.871128	1.839131	2.881250E-5	0.002079
3.201250E-5	9.862282E-6	2.611087E-5	9.021775E-6	1.709861	25.726396	44.640323	51.522868	30.132786	1.735195	3.201250E-5	0.002185
3.521250E-5	1.028925E-5	2.830749E-5	9.368650E-6	1.853687	28.356659	46.474121	54.442117	29.369643	1.638914	3.521250E-5	0.002279
3.841250E-5	1.065194E-5	3.068886E-5	9.720841E-6	2.009652	31.147023	48.262738	57.440656	28.582385	1.549514	3.841250E-5	0.002360
4.161250E-5	1.102819E-5	3.327085E-5	1.007809E-5	2.178760	34.093227	49.992607	60.511229	27.773247	1.466350	4.161250E-5	0.002443
4.481250E-5	1.141344E-5	3.607010E-5	1.044004E-5	2.362036	37.191210	51.652089	63.648444	26.946427	1.388825	4.481250E-5	0.002528
4.801250E-5	1.181330E-5	3.910509E-5	1.080638E-5	2.560752	40.435123	53.228518	66.845152	26.103721	1.316393	4.801250E-5	0.002617
5.121250E-5	1.222593E-5	4.239478E-5	1.117665E-5	2.776208	43.816889	54.709378	70.093051	25.247771	1.248591	5.121250E-5	0.002708
5.761250E-5	1.268895E-5	4.596149E-5	1.155058E-5	3.009768	47.328006	56.083660	73.384720	24.382189	1.184999	5.761250E-5	0.002811
6.401250E-5	1.319797E-5	4.982887E-5	1.192780E-5	3.263011	50.957927	57.340073	76.711109	23.509302	1.125243	6.401250E-5	0.002924
7.041250E-5	1.368465E-5	5.402035E-5	1.230774E-5	3.537553	54.694936	58.468697	80.063254	22.632386	1.068997	7.041250E-5	0.003032
7.681250E-5	1.414802E-5	5.856555E-5	1.269017E-5	3.835172	58.526491	59.460679	83.432143	21.754472	1.015962	7.681250E-5	0.003134
8.321250E-5	1.458093E-5	6.349311E-5	1.307458E-5	4.157816	62.439572	60.308467	86.809051	20.878522	0.965869	8.321250E-5	0.003230
8.961250E-5	1.491687E-5	6.883501E-5	1.346049E-5	4.507643	66.419266	61.005039	90.183888	20.006883	0.918484	8.961250E-5	0.003305
9.601250E-5	1.529920E-5	7.462553E-5	1.384741E-5	4.886858	70.450702	61.545530	93.547601	19.142691	0.873597	9.601250E-5	0.003389
0.000102	1.572339E-5	8.090385E-5	1.423497E-5	5.297957	74.519799	61.926581	96.892218	18.288599	0.831008	0.000102	0.003483
0.000115	1.616033E-5	8.771179E-5	1.462273E-5	5.743794	78.608606	62.144527	100.206064	17.445971	0.790556	0.000115	0.003580
0.000128	1.666188E-5	9.509002E-5	1.500999E-5	6.226926	82.703606	62.200246	103.483124	16.618652	0.752086	0.000128	0.003691
0.000141	1.714619E-5	0.000103	1.539648E-5	6.750903	86.788084	62.092960	106.713201	15.807248	0.715455	0.000141	0.003798
0.000154	1.753348E-5	0.000112	1.578162E-5	7.318894	90.846227	61.825249	109.888117	15.014307	0.680548	0.000154	0.003884
0.000166	1.790216E-5	0.000121	1.616498E-5	7.934562	94.864511	61.400939	113.001552	14.241688	0.647249	0.000166	0.003966
0.000179	1.820992E-5	0.000131	1.654594E-5	8.602170	98.827752	60.824095	116.045229	13.490227	0.615456	0.000179	0.004034
0.000192	1.852270E-5	0.000142	1.692412E-5	9.325836	102.723204	60.101294	119.013538	12.761702	0.585080	0.000192	0.004103
0.000205	1.887256E-5	0.000154	1.729901E-5	10.110476	106.538113	59.239276	121.900211	12.056822	0.556038	0.000205	0.004181
0.000230	1.925658E-5	0.000167	1.767021E-5	10.961127	110.260842	58.246315	124.699986	11.376566	0.528259	0.000230	0.004266
0.000256	1.966223E-5	0.000181	1.803717E-5	11.883321	113.881043	57.131470	127.408386	10.721614	0.501677	0.000256	0.004356
0.000282	2.005111E-5	0.000197	1.839942E-5	12.883083	117.389920	55.904512	130.021951	10.092456	0.476229	0.000282	0.004442
0.000307	2.037540E-5	0.000213	1.875651E-5	13.967071	120.778829	54.575669	132.536897	9.489241	0.451865	0.000307	0.004514
0.000333	2.067585E-5	0.000231	1.910817E-5	15.142093	124.041672	53.156107	134.951502	8.912341	0.428534	0.000333	0.004580
0.000358	2.092021E-5	0.000251	1.945387E-5	16.416078	127.172799	51.656764	137.263768	8.361545	0.406193	0.000358	0.004635
0.000384	2.116703E-5	0.000272	1.979324E-5	17.797191	130.167833	50.089232	139.472563	7.836774	0.384805	0.000384	0.004689
0.000410	2.144054E-5	0.000295	2.012599E-5	19.294316	133.024936	48.464992	141.578561	7.337838	0.364330	0.000410	0.004750
0.000461	2.173817E-5	0.000319	2.045172E-5	20.917807	135.741115	46.795229	143.580792	6.864046	0.344739	0.000461	0.004816
0.000512	2.204977E-5	0.000346	2.077008E-5	22.677360	138.317332	45.091681	145.481766	6.415287	0.326002	0.000512	0.004885
0.000563	2.235191E-5	0.000375	2.108087E-5	24.585548	140.752946	43.364935	147.281735	5.990582	0.308093	0.000563	0.004952
0.000614	2.259502E-5	0.000407	2.138384E-5	26.653721	143.050742	41.626158	148.984065	5.589616	0.290989	0.000614	0.005006
0.000666	2.281981E-5	0.000441	2.167871E-5	28.896465	145.212714	39.885240	150.590719	5.211389	0.274668	0.000666	0.005055
0.000717	2.301425E-5	0.000478	2.196527E-5	31.327732	147.242369	38.152402	152.104967	4.855282	0.259113	0.000717	0.005098
0.000768	2.321943E-5	0.000519	2.224348E-5	33.963425	149.143901	36.436976	153.530311	4.520460	0.244308	0.000768	0.005144
0.000819	2.344170E-5	0.000562	2.251307E-5	36.820546	150.922870	34.747611	154.871267	4.206110	0.230234	0.000819	0.005193
0.000922	2.368140E-5	0.000610	2.277406E-5	39.918628	152.584348	33.092360	156.131635	3.911248	0.216879	0.000922	0.005246
0.001024	2.393269E-5	0.000661	2.302629E-5	43.277025	154.134701	31.478984	157.316345	3.635101	0.204230	0.001024	0.005302
0.001126	2.418171E-5	0.000716	2.326986E-5	46.918229	155.580030	29.914429	158.429854	3.376723	0.192277	0.001126	0.005357
0.001229	2.438843E-5	0.000777	2.350470E-5	50.864990	156.927670	28.405081	159.477717	3.135314	0.181007	0.001229	0.005403
0.001331	2.457611E-5	0.000842	2.373084E-5	55.144262	158.184699	26.956420	160.465098	2.909915	0.170411	0.001331	0.005444
0.001434	2.472665E-5	0.000913	2.394847E-5	59.783952	159.358211	25.573710	161.397194	2.699674	0.160479	0.001434	0.005478
0.001536	2.487770E-5	0.000990	2.415768E-5	64.813711	160.455840	24.261549	162.279695	2.503787	0.151204	0.001536	0.005511
0.001638	2.505253E-5	0.001073	2.435857E-5	70.267252	161.484754	23.023981	163.117839	2.321392	0.142577	0.001638	0.005550
0.001843	2.525338E-5	0.001163	2.455142E-5	76.178811	162.452695	21.864580	163.917473	2.151746	0.134590	0.001843	0.005594
0.002048	2.547200E-5	0.001261	2.473644E-5	82.588318	163.366884	20.786324	164.683970	1.994035	0.127237	0.002048	0.005643
0.002253	2.568277E-5	0.001367	2.491385E-5	89.536473	164.234798	19.791860	165.423054	1.847549	0.120510	0.002253	0.005690
0.002458	2.586524E-5	0.001482	2.508404E-5	97.069656	165.063364	18.883406	166.139992	1.711554	0.114401	0.002458	0.005730
0.002662	2.604292E-5	0.001607	2.524729E-5	105.234953	165.860107	18.062726	166.840754	1.585412	0.108903	0.002662	0.005769
0.002867	2.618852E-5	0.001742	2.540402E-5	114.090187	166.631365	17.331287	167.530252	1.468402	0.104010	0.002867	0.005802
0.003072	2.632645E-5	0.001889	2.555458E-5	123.688661	167.383992	16.690456	168.214066	1.359980	0.099714	0.003072	0.005832
0.003277	2.647658E-5	0.002048	2.569944E-5	134.095514	168.124189	16.141156	168.897246	1.259529	0.096007	0.003277	0.005865
0.003686	2.663662E-5	0.002220	2.583908E-5	145.376428	168.858191	15.684183	169.585030	1.166524	0.092884	0.003686	0.005901
0.004096	2.681837E-5	0.002407	2.597398E-5	157.606135	169.591942	15.320076	170.282505	1.080431	0.090335	0.004096	0.005941
0.004506	2.700423E-5	0.002609	2.610466E-5	170.865374	170.331095	15.049279	170.994628	1.000756	0.088353	0.004506	0.005982
0.004915	2.714554E-5	0.002829	2.623169E-5	185.241242	171.080965	14.872149	171.726170	0.927041	0.086930	0.004915	0.006014
0.005325	2.727007E-5	0.003067	2.635564E-5	200.826379	171.846740	14.788965	172.481928	0.858861	0.086059	0.005325	0.006041
0.005734	2.734825E-5	0.003325	2.647714E-5	217.723665	172.633280	14.799942	173.266522	0.795809	0.085731	0.005734	0.006059
0.006144	2.742899E-5	0.003604	2.659679E-5	236.042932	173.445137	14.905263	174.084412	0.737512	0.085936	0.006144	0.006076
0.006554	2.756163E-5	0.003908	2.671530E-5	255.901141	174.286869	15.105123	174.940211	0.683624	0.086668	0.006554	0.006106
0.007373	2.774639E-5	0.004237	2.683334E-5	277.431284	175.162466	15.399699	175.838108	0.633808	0.087917	0.007373	0.006147
0.008192	2.796654E-5	0.004593	2.695162E-5	300.767494	176.076335	15.789317	176.782856	0.587772	0.089673	0.008192	0.006196
0.009011	2.820419E-5	0.004979	2.707088E-5	326.074271	177.031907	16.274290	177.778370	0.545208	0.091929	0.009011	0.006248
0.009830	2.838907E-5	0.005398	2.719187E-5	353.505146	178.033057	16.855034	178.829141	0.505874	0.094674	0.009830	0.006289
0.010650	2.857977E-5	0.005853	2.731538E-5	383.246984	179.083192	17.532123	179.939337	0.469513	0.097899	0.010650	0.006331
0.011469	2.873553E-5	0.006345	2.744222E-5	415.492077	180.185592	18.306176	181.113124	0.435900	0.101596	0.011469	0.006366
0.012288	2.892195E-5	0.006879	2.757323E-5	450.449623	181.343539	19.178014	182.354807	0.404828	0.105755	0.012288	0.006407
0.013107	2.914992E-5	0.007457	2.770928E-5	488.351652	182.559806	20.148460	183.668297	0.376098	0.110366	0.013107	0.006458
0.014746	2.939934E-5	0.008085	2.785127E-5	529.433718	183.837675	21.218642	185.058157	0.349540	0.115421	0.014746	0.006513
0.016384	2.967040E-5	0.008765	2.800010E-5	573.976236	185.179997	22.389966	186.528663	0.324976	0.120909	0.016384	0.006573
0.018022	3.000139E-5	0.009503	2.815676E-5	622.269325	186.589394	23.663792	188.083962	0.302255	0.126823	0.018022	0.006646
0.019661	3.030854E-5	0.010302	2.832215E-5	674.620281	188.068866	25.041854	189.728735	0.281238	0.133153	0.019661	0.006714
0.021299	3.067142E-5	0.011169	2.849738E-5	731.381896	189.620674	26.525898	191.467029	0.261788	0.139889	0.021299	0.006795
0.022938	3.093723E-5	0.012108	2.868345E-5	792.904101	191.248145	28.118218	193.304131	0.243793	0.147025	0.022938	0.006854
0.024576	3.114788E-5	0.013127	2.888149E-5	859.618006	192.953626	29.821328	195.244496	0.227129	0.154552	0.024576	0.006900
0.026214	3.139120E-5	0.014231	2.909259E-5	931.945898	194.739431	31.637476	197.292615	0.211700	0.162461	0.026214	0.006954
0.029491	3.174481E-5	0.015429	2.931801E-5	1010.341572	196.608981	33.569857	199.454323	0.197413	0.170744	0.029491	0.007033
0.032768	3.225402E-5	0.016727	2.955890E-5	1095.353586	198.564469	35.621726	201.734369	0.184173	0.179396	0.032768	0.007145
0.036045	3.284656E-5	0.018134	2.981661E-5	1187.513216	200.608368	37.796141	204.137859	0.171904	0.188408	0.036045	0.007277
0.039322	3.342467E-5	0.019660	3.009245E-5	1287.405440	202.744188	40.097246	206.671224	0.160533	0.197773	0.039322	0.007405
0.042598	3.406586E-5	0.021314	3.038781E-5	1395.720147	204.974663	42.529509	209.340325	0.149987	0.207487	0.042598	0.007547
0.045875	3.445569E-5	0.023107	3.070429E-5	1513.162113	207.301922	45.096858	212.150450	0.140203	0.217542	0.045875	0.007633
0.049152	3.482067E-5	0.025051	3.104338E-5	1640.450964	209.730117	47.804563	215.109270	0.131128	0.227934	0.049152	0.007714
0.052429	3.533103E-5	0.027159	3.140678E-5	1778.482372	212.261334	50.657798	218.222562	0.122702	0.238658	0.052429	0.007827
0.058982	3.602132E-5	0.029443	3.179614E-5	1928.100176	214.899805	53.662526	221.498516	0.114879	0.249710	0.058982	0.007980
0.065536	3.702717E-5	0.031921	3.221343E-5	2090.342009	217.647597	56.824548	224.943339	0.107611	0.261085	0.065536	0.008203
0.072090	3.824860E-5	0.034606	3.266060E-5	2266.190454	220.509201	60.150665	228.565987	0.100859	0.272781	0.072090	0.008473
0.078643	3.933793E-5	0.037518	3.313975E-5	2456.855277	223.487920	63.648373	232.374624	0.094582	0.284796	0.078643	0.008715
0.085197	4.058547E-5	0.040674	3.365296E-5	2663.569872	226.587202	67.325115	236.377730	0.088745	0.297127	0.085197	0.008991
0.091750	4.136371E-5	0.044097	3.420288E-5	2887.663693	229.810631	71.188848	240.584243	0.083314	0.309772	0.091750	0.009163
0.098304	4.207700E-5	0.047806	3.479172E-5	3130.573758	233.163414	75.249261	245.005365	0.078262	0.322732	0.098304	0.009321
0.104858	4.303096E-5	0.051829	3.542256E-5	3393.973700	236.649027	79.516045	249.650883	0.073557	0.336008	0.104858	0.009533
0.117965	4.438625E-5	0.056189	3.609800E-5	3679.541470	240.271303	83.998844	254.531147	0.069175	0.349600	0.117965	0.009833
0.131072	4.626621E-5	0.060916	3.682140E-5	3989.093387	244.035429	88.708990	259.658575	0.065092	0.363509	0.131072	0.010250
0.144179	4.867800E-5	0.066041	3.759610E-5	4324.697889	247.946420	93.658983	265.046094	0.061287	0.377739	0.144179	0.010784
0.157286	4.872657E-5	0.071597	3.842563E-5	4688.582828	252.007320	98.860359	270.704747	0.057737	0.392292	0.157286	0.010795
0.170394	5.229041E-5	0.077621	3.931410E-5	5082.960645	256.225515	104.327877	276.651080	0.054427	0.407172	0.170394	0.011584
0.183501	6.153315E-5	0.084152	4.026552E-5	5510.595813	260.605593	110.076864	282.899613	0.051337	0.422389	0.183501	0.013632
0.399815	7.835822E-5	0.091231	4.128457E-5	5974.251516	265.152854	116.122953	289.466019	0.048452	0.437947	0.399815	0.017359
0.599722	0.000101	0.098907	4.237620E-5	6476.943703	269.871850	122.482265	296.365857	0.045757	0.453853	0.599722	0.022372
0.799629	0.000127	0.107229	4.354574E-5	7021.843017	274.769373	129.173514	303.618190	0.043239	0.470116	0.799629	0.028131
0.999537	0.000151	0.116250	4.479883E-5	7612.594531	279.850885	136.216463	311.241775	0.040885	0.486747	0.999537	0.033427
1.199440	0.000175	0.126031	4.614209E-5	8253.016353	285.123819	143.633409	319.258748	0.038684	0.503758	1.199440	0.038660
1.399350	0.000198	0.136633	4.758183E-5	8947.443628	290.592635	151.446272	327.688957	0.036624	0.521163	1.399350	0.043837
1.599260	0.000222	0.148128	4.912603E-5	9700.232367	296.264373	159.679529	336.556282	0.034696	0.538976	1.599260	0.049071
1.799170	0.000245	0.160593	5.078271E-5	10516.351126	302.144251	168.358722	345.884096	0.032890	0.557213	1.799170	0.054316
1.999070	0.000269	0.174101	5.255974E-5	11400.975326	308.242459	177.515377	355.703701	0.031199	0.575895	1.999070	0.059562
2.198980	0.000292	0.188752	5.446813E-5	12360.351747	314.561144	187.177727	366.038543	0.029614	0.595044	2.198980	0.064791
2.398890	0.000317	0.204630	5.651679E-5	13400.239779	321.108026	197.378174	376.919764	0.028128	0.614678	2.398890	0.070289
2.598800	0.000338	0.221845	5.871773E-5	14527.490351	327.891317	208.154519	388.382569	0.026734	0.634828	2.598800	0.074970
2.798700	0.000364	0.240511	6.108346E-5	15749.739827	334.916335	219.545256	400.461073	0.025427	0.655523	2.798700	0.080704
2.998610	0.000388	0.260744	6.362688E-5	17074.884670	342.189039	231.591534	413.192422	0.024199	0.676794	2.998610	0.085847
3.198520	0.000409	0.282681	6.636302E-5	18511.543785	349.712910	244.335549	426.613384	0.023046	0.698675	3.198520	0.090686
3.398430	0.000436	0.306465	6.930795E-5	20068.686788	357.498853	257.830680	440.774420	0.021963	0.721207	3.398430	0.096600
3.598330	0.000457	0.332252	7.247905E-5	21757.344596	365.546523	272.126120	455.715795	0.020945	0.744436	3.598330	0.101350
3.798240	0.000482	0.360204	7.589481E-5	23587.807063	373.861664	287.278000	471.488275	0.019989	0.768407	3.798240	0.106836
3.998150	0.000507	0.390510	7.957677E-5	25572.120182	382.450367	303.351240	488.149832	0.019089	0.793178	3.998150	0.112302
4.198050	0.000528	0.423363	8.354689E-5	27723.792521	391.311656	320.409755	505.754113	0.018243	0.818810	4.198050	0.116892
4.397960	0.000553	0.458977	8.782984E-5	30056.339349	400.447918	338.525451	524.364393	0.017446	0.845367	4.397960	0.122486
4.597870	0.000576	0.497599	9.245457E-5	32585.113988	409.857407	357.774759	544.045836	0.016696	0.872925	4.597870	0.127513
4.797780	0.000596	0.539465	9.744876E-5	35326.341065	419.539668	378.243610	564.873227	0.015990	0.901568	4.797780	0.132117
4.997680	0.000621	0.584843	0.000103	38298.226628	429.491676	400.026359	586.927753	0.015325	0.931395	4.997680	0.137678
5.197590	0.000642	0.634052	0.000109	41520.598971	439.703432	423.219241	610.289795	0.014698	0.962511	5.197590	0.142209
5.397500	0.000666	0.687394	0.000115	45013.883051	450.164536	447.927757	635.049120	0.014108	0.995031	5.397500	0.147493
5.597410	0.000689	0.745228	0.000122	48800.597401	460.865129	474.273967	661.311169	0.013551	1.029095	5.597410	0.152548
5.797310	0.000707	0.807923	0.000129	52906.421177	471.784568	502.383513	689.180581	0.013026	1.064858	5.797310	0.156647
5.997220	0.000730	0.875905	0.000137	57357.747689	482.898584	532.391323	718.770870	0.012531	1.102491	5.997220	0.161819
6.197130	0.000751	0.949583	0.000146	62183.157901	494.180916	564.450671	750.212862	0.012065	1.142194	6.197130	0.166331
6.397030	0.000773	1.029490	0.000155	67414.855655	505.595313	598.726162	783.645097	0.011624	1.184200	6.397030	0.171231
6.596940	0.000797	1.116105	0.000165	73087.212483	517.093963	635.388874	819.210100	0.011209	1.228769	6.596940	0.176603
6.796850	0.000817	1.209987	0.000176	79236.123068	528.625734	674.632801	857.073266	0.010817	1.276201	6.796850	0.180905
6.996760	0.000841	1.311787	0.000188	85902.198248	540.127823	716.672616	897.417240	0.010447	1.326857	6.996760	0.186293
7.196670	0.000864	1.422165	0.000201	93129.947636	551.517212	761.727819	940.425704	0.010098	1.381150	7.196670	0.191357
7.396570	0.000884	1.541813	0.000216	100964.949843	562.706736	810.053235	986.318972	0.009769	1.439566	7.396570	0.195801
7.596480	0.000907	1.671517	0.000231	109460.081708	573.577612	861.903299	1035.310859	0.009458	1.502679	7.596480	0.200929
7.796390	0.000925	1.812159	0.000247	118667.920192	584.008725	917.583739	1087.670037	0.009166	1.571182	7.796390	0.205011
7.996290	0.000949	1.964612	0.000265	128651.717671	593.838572	977.403879	1143.661922	0.008890	1.645908	7.996290	0.210135
8.196200	0.000970	2.129899	0.000285	139474.956195	602.891956	1041.720954	1203.603447	0.008630	1.727873	8.196200	0.214948
8.396110	0.000991	2.309105	0.000306	151211.256966	610.945420	1110.891425	1267.806793	0.008384	1.818315	8.396110	0.219438
8.596020	0.001013	2.503375	0.000329	163933.924933	617.750432	1185.312892	1336.630931	0.008153	1.918757	8.596020	0.224370
8.795920	0.001036	2.713975	0.000354	177725.372876	623.018033	1265.435730	1410.488942	0.007936	2.031138	8.795920	0.229503
8.995830	0.001053	2.942298	0.000381	192678.578467	626.394053	1351.703600	1489.789291	0.007732	2.157913	8.995830	0.233210
9.195740	0.001075	3.189842	0.000410	208885.674594	627.494070	1444.666885	1575.059116	0.007540	2.302280	9.195740	0.238259
9.395650	0.001093	3.458255	0.000441	226461.333252	625.832481	1544.840136	1666.792531	0.007360	2.468456	9.395650	0.242234
9.595550	0.001114	3.749184	0.000475	245513.386714	620.875849	1652.826101	1765.593651	0.007191	2.662088	9.595550	0.246816
9.795460	0.001135	4.064630	0.000512	266169.842511	611.987291	1769.261880	1872.115393	0.007034	2.891011	9.795460	0.251333
9.995370	0.001155	4.406619	0.000551	288566.771765	598.425963	1894.790915	1987.044601	0.006886	3.166291	9.995370	0.255774
10.195300	0.001172	4.777294	0.000594	312844.535589	579.347963	2030.146374	2111.193587	0.006748	3.504192	10.195300	0.259593
10.395200	0.001190	5.179246	0.000640	339164.717041	553.761591	2176.096638	2245.450618	0.006621	3.929663	10.395200	0.263568
10.595100	0.001208	5.615048	0.000689	367699.152410	520.522884	2333.456400	2390.807990	0.006502	4.482908	10.595100	0.267558
10.795000	0.001227	6.087391	0.000741	398633.059347	478.310815	2503.096858	2548.386767	0.006393	5.233201	10.795000	0.271912
10.994900	0.001241	6.599515	0.000797	432166.425918	425.595283	2686.047842	2719.555911	0.006293	6.311273	10.994900	0.274854
11.194800	0.001255	7.154844	0.000857	468530.994182	360.589731	2883.330611	2905.790833	0.006202	7.996153	11.194800	0.278053
11.394700	0.001271	7.756792	0.000921	507952.950718	281.253705	3096.194918	3108.943007	0.006121	11.008548	11.394700	0.281531
11.594600	0.001286	8.409283	0.000988	550686.959389	185.181433	3326.256729	3331.407508	0.006050	17.962150	11.594600	0.284913
11.794500	0.001298	9.116820	0.001060	597016.914507	69.502914	3575.696959	3576.372380	0.005990	51.446720	11.794500	0.287598
11.994400	0.001310	9.883786	0.001135	647246.478160	-69.280481	3847.737668	3848.361332	0.005946	-55.538553	11.994400	0.290200
12.194300	0.001328	10.715447	0.001214	701699.803616	-235.644389	4147.555977	4154.244680	0.005920	-17.600911	12.194300	0.294165
12.394300	0.001348	11.616890	0.001296	760728.749525	-435.778468	4484.021924	4505.147666	0.005922	-10.289682	12.394300	0.298607
