MicroRheology Analysis v9.2.8
10/03/18 5:11:46 PM

Correlation Mode:	Cross
Geometry:	Transmission
Multi-Tau Duration (s):	120
Echo Duration (s):	60
Wavelength (nm):	685.0
Temperature (°C):	19.99
Cuvette Thickness (mm):	5.00
Absorption Length (mm):	Inf
Solvent:	Water
Solvent Refractive Index:	1.329
Particle Radius (nm):	300.0
Mean Count Rate (kHz):	594.5
l* (microns):	582.84



Lag Time (s)	Mean Square Displacement (micron^2)	Fit Lag Time (s)	Mean Square Displacement Fit (micron^2)	Frequency(rad/s)	G1 (Pa)	G2 (Pa)	G* (Pa)	Complex Viscosity (Pa s)	Loss Tangent (-)	Time (s)	Creep Compliance (1/Pa)

3.612500E-6	2.861000E-6	3.612502E-6	2.850769E-6	0.113688	-0.337513	2.967824	2.986954	26.273364	-8.793205	3.612500E-6	0.000666
4.012500E-6	2.974291E-6	3.942987E-6	3.018891E-6	0.124089	-0.255296	3.296712	3.306582	26.646859	-12.913293	4.012500E-6	0.000693
4.412500E-6	3.133843E-6	4.303712E-6	3.197522E-6	0.135440	-0.153172	3.648256	3.651470	26.960052	-23.818110	4.412500E-6	0.000730
4.812500E-6	3.339732E-6	4.697410E-6	3.387105E-6	0.147830	-0.029153	4.022512	4.022617	27.211165	-137.980572	4.812500E-6	0.000778
5.212500E-6	3.582947E-6	5.127102E-6	3.588104E-6	0.161350	0.118787	4.419575	4.421171	27.401062	37.206025	5.212500E-6	0.000834
5.612500E-6	3.827361E-6	5.596139E-6	3.801005E-6	0.176111	0.292706	4.839237	4.848081	27.528585	16.532741	5.612500E-6	0.000891
6.012500E-6	4.121100E-6	6.108062E-6	4.026243E-6	0.192223	0.494591	5.280998	5.304108	27.593459	10.677510	6.012500E-6	0.000960
6.412500E-6	4.325429E-6	6.666799E-6	4.264277E-6	0.209805	0.726477	5.744565	5.790319	27.598552	7.907430	6.412500E-6	0.001007
7.212500E-6	4.565410E-6	7.276648E-6	4.515558E-6	0.229000	0.990326	6.229070	6.307302	27.542805	6.289916	7.212500E-6	0.001063
8.012500E-6	4.850069E-6	7.942274E-6	4.780522E-6	0.249947	1.288058	6.733794	6.855879	27.429376	5.227867	8.012500E-6	0.001129
8.812500E-6	5.270336E-6	8.668865E-6	5.059625E-6	0.272811	1.621564	7.257757	7.436700	27.259562	4.475776	8.812500E-6	0.001227
9.612500E-6	5.549982E-6	9.461741E-6	5.353183E-6	0.297769	1.992536	7.799609	8.050099	27.034700	3.914414	9.612500E-6	0.001292
1.041250E-5	5.860069E-6	1.032725E-5	5.661684E-6	0.325004	2.402671	8.358214	8.696698	26.758721	3.478717	1.041250E-5	0.001365
1.121250E-5	6.065478E-6	1.127203E-5	5.985499E-6	0.354734	2.853532	8.932038	9.376777	26.433268	3.130170	1.121250E-5	0.001412
1.201250E-5	6.325978E-6	1.230313E-5	6.324897E-6	0.387184	3.346551	9.519531	10.090633	26.061596	2.844580	1.201250E-5	0.001473
1.281250E-5	6.603347E-6	1.342868E-5	6.680268E-6	0.422608	3.882836	10.118663	10.838070	25.645694	2.605998	1.281250E-5	0.001538
1.441250E-5	6.968556E-6	1.465714E-5	7.051840E-6	0.461261	4.463600	10.727890	11.619438	25.190605	2.403416	1.441250E-5	0.001623
1.601250E-5	7.321159E-6	1.599775E-5	7.439810E-6	0.503459	5.089682	11.344970	12.434356	24.697832	2.229013	1.601250E-5	0.001705
1.761250E-5	7.730318E-6	1.746121E-5	7.844512E-6	0.549513	5.761791	11.967908	13.282661	24.171688	2.077116	1.761250E-5	0.001800
1.921250E-5	8.111618E-6	1.905855E-5	8.266059E-6	0.599780	6.480451	12.594508	14.163964	23.615253	1.943462	1.921250E-5	0.001889
2.081250E-5	8.508549E-6	2.080214E-5	8.704607E-6	0.654646	7.245979	13.222547	15.077797	23.031992	1.824812	2.081250E-5	0.001981
2.241250E-5	8.883441E-6	2.270510E-5	9.160171E-6	0.714532	8.058525	13.849781	16.023616	22.425319	1.718650	2.241250E-5	0.002069
2.401250E-5	9.313210E-6	2.478188E-5	9.632764E-6	0.779905	8.917709	14.473584	17.000299	21.797903	1.623016	2.401250E-5	0.002169
2.561250E-5	9.835048E-6	2.704888E-5	1.012247E-5	0.851238	9.823449	15.092027	18.007482	21.154472	1.536327	2.561250E-5	0.002290
2.881250E-5	1.042352E-5	2.952330E-5	1.062918E-5	0.929114	10.775099	15.702522	19.043948	20.496896	1.457297	2.881250E-5	0.002427
3.201250E-5	1.103806E-5	3.222377E-5	1.115271E-5	1.014113	11.771716	16.302692	20.108482	19.828648	1.384904	3.201250E-5	0.002570
3.521250E-5	1.161217E-5	3.517159E-5	1.169299E-5	1.106874	12.812453	16.890444	21.200143	19.153168	1.318283	3.521250E-5	0.002704
3.841250E-5	1.210711E-5	3.838937E-5	1.224979E-5	1.208131	13.896085	17.463470	22.317571	18.472810	1.256719	3.841250E-5	0.002819
4.161250E-5	1.260948E-5	4.190127E-5	1.282274E-5	1.318654	15.020952	18.019459	23.459111	17.790196	1.199622	4.161250E-5	0.002936
4.481250E-5	1.309796E-5	4.573362E-5	1.341141E-5	1.439261	16.185842	18.556745	24.623856	17.108685	1.146480	4.481250E-5	0.003050
4.801250E-5	1.362967E-5	4.991779E-5	1.401570E-5	1.570937	17.388635	19.072975	25.809746	16.429527	1.096864	4.801250E-5	0.003174
5.121250E-5	1.420569E-5	5.448436E-5	1.463496E-5	1.714633	18.627494	19.566570	27.015444	15.755820	1.050413	5.121250E-5	0.003308
5.761250E-5	1.489467E-5	5.946767E-5	1.526858E-5	1.871482	19.900349	20.035792	28.239279	15.089260	1.006806	5.761250E-5	0.003469
6.401250E-5	1.565186E-5	6.490820E-5	1.591633E-5	2.042688	21.204690	20.478953	29.479254	14.431597	0.965775	6.401250E-5	0.003645
7.041250E-5	1.640476E-5	7.084609E-5	1.657740E-5	2.229521	22.538499	20.894971	30.734082	13.785060	0.927079	7.041250E-5	0.003820
7.681250E-5	1.711867E-5	7.732673E-5	1.725114E-5	2.433484	23.899165	21.282429	32.001748	13.150592	0.890509	7.681250E-5	0.003986
8.321250E-5	1.778966E-5	8.439920E-5	1.793683E-5	2.656105	25.284108	21.640353	33.280490	12.529810	0.855888	8.321250E-5	0.004143
8.961250E-5	1.832520E-5	9.212069E-5	1.863401E-5	2.899099	26.690467	21.967781	34.568257	11.923793	0.823057	8.961250E-5	0.004267
9.601250E-5	1.894182E-5	0.000101	1.934167E-5	3.164277	28.115745	22.264223	35.863502	11.333869	0.791877	9.601250E-5	0.004411
0.000102	1.964447E-5	0.000110	2.005910E-5	3.453718	29.557410	22.529225	37.164586	10.760746	0.762219	0.000102	0.004575
0.000115	2.042653E-5	0.000120	2.078554E-5	3.769679	31.012411	22.762332	38.469383	10.204950	0.733975	0.000115	0.004757
0.000128	2.132592E-5	0.000131	2.152004E-5	4.114490	32.478319	22.963687	39.776527	9.667425	0.707047	0.000128	0.004966
0.000141	2.222693E-5	0.000143	2.226174E-5	4.490887	33.952264	23.133232	41.084093	9.148325	0.681346	0.000141	0.005176
0.000154	2.298382E-5	0.000156	2.301001E-5	4.901683	35.431785	23.271402	42.390677	8.648189	0.656795	0.000154	0.005352
0.000166	2.369500E-5	0.000170	2.376371E-5	5.350093	36.914165	23.378573	43.694545	8.167063	0.633323	0.000166	0.005518
0.000179	2.430040E-5	0.000186	2.452211E-5	5.839494	38.397035	23.455500	44.994364	7.705182	0.610867	0.000179	0.005659
0.000192	2.493368E-5	0.000203	2.528429E-5	6.373688	39.878108	23.503005	46.288819	7.262486	0.589371	0.000192	0.005806
0.000205	2.568544E-5	0.000221	2.604934E-5	6.956812	41.354706	23.521953	47.576191	6.838792	0.568785	0.000205	0.005981
0.000230	2.656180E-5	0.000241	2.681653E-5	7.593146	42.824885	23.513674	48.855539	6.434163	0.549066	0.000230	0.006185
0.000256	2.750170E-5	0.000263	2.758490E-5	8.287674	44.287017	23.479483	50.126101	6.048271	0.530166	0.000256	0.006404
0.000282	2.842292E-5	0.000287	2.835379E-5	9.045919	45.738701	23.420589	51.386309	5.680607	0.512052	0.000282	0.006619
0.000307	2.920364E-5	0.000314	2.912239E-5	9.873371	47.178444	23.338754	52.635568	5.331064	0.494691	0.000307	0.006801
0.000333	2.991398E-5	0.000342	2.988978E-5	10.776527	48.604777	23.235581	53.873153	4.999120	0.478051	0.000333	0.006966
0.000358	3.052102E-5	0.000374	3.065554E-5	11.762343	50.016257	23.112808	55.098347	4.684300	0.462106	0.000358	0.007107
0.000384	3.115517E-5	0.000408	3.141876E-5	12.838324	51.411797	22.972329	56.310752	4.386145	0.446830	0.000384	0.007255
0.000410	3.187388E-5	0.000445	3.217891E-5	14.012819	52.790140	22.816006	57.509730	4.104080	0.432202	0.000410	0.007422
0.000461	3.270499E-5	0.000486	3.293550E-5	15.294594	54.150797	22.645955	58.695384	3.837655	0.418202	0.000461	0.007616
0.000512	3.360402E-5	0.000530	3.368805E-5	16.693847	55.492824	22.464088	59.867260	3.586187	0.404811	0.000512	0.007825
0.000563	3.448841E-5	0.000579	3.443582E-5	18.220957	56.815822	22.272601	61.025457	3.349191	0.392014	0.000563	0.008031
0.000614	3.523627E-5	0.000632	3.517873E-5	19.887723	58.119530	22.073602	62.170119	3.126055	0.379797	0.000614	0.008205
0.000666	3.591231E-5	0.000690	3.591623E-5	21.706937	59.403961	21.869256	63.301619	2.916193	0.368145	0.000666	0.008363
0.000717	3.648036E-5	0.000753	3.664806E-5	23.692737	60.668938	21.661684	64.420094	2.718981	0.357047	0.000717	0.008495
0.000768	3.707769E-5	0.000822	3.737419E-5	25.859933	61.914908	21.453151	65.526282	2.533892	0.346494	0.000768	0.008634
0.000819	3.775614E-5	0.000897	3.809425E-5	28.225529	63.142305	21.245788	66.620824	2.360304	0.336475	0.000819	0.008792
0.000922	3.852198E-5	0.000979	3.880836E-5	30.807734	64.351530	21.041760	67.704321	2.197640	0.326981	0.000922	0.008971
0.001024	3.933591E-5	0.001068	3.951649E-5	33.626013	65.543155	20.843265	68.777517	2.045366	0.318008	0.001024	0.009160
0.001126	4.012947E-5	0.001166	4.021847E-5	36.701570	66.718469	20.652524	69.841828	1.902966	0.309547	0.001126	0.009345
0.001229	4.078528E-5	0.001273	4.091477E-5	40.059136	67.878291	20.471563	70.898147	1.769837	0.301592	0.001229	0.009498
0.001331	4.138021E-5	0.001389	4.160535E-5	43.723969	69.023411	20.302526	71.947369	1.645490	0.294140	0.001331	0.009636
0.001434	4.187208E-5	0.001516	4.229052E-5	47.723006	70.155613	20.147619	72.991346	1.529479	0.287185	0.001434	0.009751
0.001536	4.236943E-5	0.001655	4.297071E-5	52.088788	71.276116	20.008795	74.031322	1.421253	0.280722	0.001536	0.009867
0.001638	4.294084E-5	0.001807	4.364641E-5	56.854278	72.386035	19.888119	75.068471	1.320366	0.274751	0.001638	0.010000
0.001843	4.359597E-5	0.001972	4.431782E-5	62.054371	73.487486	19.787733	76.104961	1.226424	0.269267	0.001843	0.010152
0.002048	4.432108E-5	0.002152	4.498575E-5	67.731499	74.581801	19.709526	77.142145	1.138940	0.264267	0.002048	0.010321
0.002253	4.503869E-5	0.002349	4.565075E-5	73.927447	75.670699	19.655554	78.181811	1.057548	0.259751	0.002253	0.010488
0.002458	4.564393E-5	0.002564	4.631343E-5	80.689394	76.756239	19.627825	79.226080	0.981865	0.255716	0.002458	0.010629
0.002662	4.621385E-5	0.002799	4.697476E-5	88.070540	77.840264	19.628281	80.276872	0.911507	0.252161	0.002662	0.010762
0.002867	4.669891E-5	0.003055	4.763528E-5	96.127093	78.924840	19.658923	81.336361	0.846134	0.249084	0.002867	0.010875
0.003072	4.722062E-5	0.003334	4.829604E-5	104.921644	80.011670	19.721672	82.406381	0.785409	0.246485	0.003072	0.010996
0.003277	4.783722E-5	0.003639	4.895817E-5	114.518806	81.103192	19.818597	83.489547	0.729047	0.244363	0.003277	0.011140
0.003686	4.853518E-5	0.003972	4.962227E-5	124.995215	82.201259	19.951620	84.587908	0.676729	0.242717	0.003686	0.011302
0.004096	4.930108E-5	0.004335	5.028990E-5	136.428366	83.308406	20.122848	85.704256	0.628200	0.241546	0.004096	0.011481
0.004506	5.006072E-5	0.004732	5.096192E-5	148.909676	84.426512	20.334256	86.840761	0.583177	0.240852	0.004506	0.011658
0.004915	5.070991E-5	0.005165	5.163962E-5	162.530978	85.557982	20.587978	88.000189	0.541436	0.240632	0.004915	0.011809
0.005325	5.133528E-5	0.005637	5.232436E-5	177.398298	86.705193	20.886174	89.185328	0.502741	0.240887	0.005325	0.011954
0.005734	5.184527E-5	0.006153	5.301742E-5	193.626805	87.870307	21.231010	90.398820	0.466871	0.241618	0.005734	0.012073
0.006144	5.239548E-5	0.006715	5.372027E-5	211.338616	89.055813	21.624789	91.643709	0.433634	0.242823	0.006144	0.012201
0.006554	5.309367E-5	0.007330	5.443454E-5	230.671538	90.264197	22.069905	92.923118	0.402837	0.244503	0.006554	0.012364
0.007373	5.392060E-5	0.008000	5.516156E-5	251.775954	91.497301	22.568632	94.239584	0.374299	0.246659	0.007373	0.012556
0.008192	5.487267E-5	0.008732	5.590324E-5	274.803213	92.758424	23.123751	95.597244	0.347875	0.249290	0.008192	0.012778
0.009011	5.584414E-5	0.009531	5.666111E-5	299.946414	94.049206	23.737728	96.998623	0.323387	0.252397	0.009011	0.013004
0.009830	5.668284E-5	0.010403	5.743725E-5	327.382207	95.372470	24.413374	98.447554	0.300711	0.255979	0.009830	0.013200
0.010650	5.745641E-5	0.011355	5.823333E-5	357.327345	96.731026	25.153782	99.948007	0.279710	0.260038	0.010650	0.013380
0.011469	5.807812E-5	0.012393	5.905141E-5	390.019315	98.126797	25.961842	101.503131	0.260252	0.264574	0.011469	0.013525
0.012288	5.874280E-5	0.013527	5.989353E-5	425.694113	99.562816	26.840906	103.117353	0.242233	0.269588	0.012288	0.013679
0.013107	5.955036E-5	0.014764	6.076207E-5	464.637006	101.041444	27.794397	104.794570	0.225541	0.275079	0.013107	0.013867
0.014746	6.051429E-5	0.016115	6.165931E-5	507.141156	102.565164	28.825846	106.538924	0.210077	0.281049	0.014746	0.014092
0.016384	6.165604E-5	0.017589	6.258739E-5	553.527868	104.137171	29.939345	108.355502	0.195754	0.287499	0.016384	0.014358
0.018022	6.284957E-5	0.019198	6.354931E-5	604.170241	105.759508	31.138794	110.248347	0.182479	0.294430	0.018022	0.014636
0.019661	6.388887E-5	0.020954	6.454746E-5	659.436916	107.435050	32.428462	112.222525	0.170179	0.301842	0.019661	0.014878
0.021299	6.495988E-5	0.022871	6.558449E-5	719.755204	109.166782	33.813111	114.283476	0.158781	0.309738	0.021299	0.015127
0.022938	6.579792E-5	0.024963	6.666389E-5	785.596070	110.957561	35.297750	116.436727	0.148214	0.318119	0.022938	0.015322
0.024576	6.666799E-5	0.027247	6.778850E-5	857.468115	112.809601	36.887253	118.687301	0.138416	0.326987	0.024576	0.015525
0.026214	6.778586E-5	0.029739	6.896143E-5	935.896378	114.726729	38.587539	121.042226	0.129333	0.336343	0.026214	0.015785
0.029491	6.916702E-5	0.032459	7.018665E-5	1021.519920	116.711230	40.404394	123.507191	0.120905	0.346191	0.029491	0.016107
0.032768	7.076115E-5	0.035429	7.146775E-5	1114.969315	118.766053	42.343880	126.088776	0.113087	0.356532	0.032768	0.016478
0.036045	7.254157E-5	0.038670	7.280853E-5	1216.954510	120.894857	44.413044	128.794740	0.105834	0.367369	0.036045	0.016893
0.039322	7.410467E-5	0.042207	7.421320E-5	1328.285388	123.100066	46.618745	131.631811	0.099099	0.378706	0.039322	0.017257
0.042598	7.562178E-5	0.046068	7.568650E-5	1449.780221	125.385529	48.968791	134.608593	0.092848	0.390546	0.042598	0.017610
0.045875	7.674788E-5	0.050282	7.723290E-5	1582.399677	127.754583	51.471533	137.733627	0.087041	0.402894	0.045875	0.017872
0.049152	7.782178E-5	0.054882	7.885762E-5	1727.166380	130.209923	54.135159	141.015033	0.081645	0.415753	0.049152	0.018122
0.052429	7.907629E-5	0.059902	8.056613E-5	1885.148127	132.756207	56.969500	144.463609	0.076632	0.429129	0.052429	0.018414
0.058982	8.067144E-5	0.065383	8.236437E-5	2057.623014	135.395970	59.984019	148.088322	0.071971	0.443027	0.058982	0.018786
0.065536	8.272693E-5	0.071363	8.425810E-5	2245.852866	138.133125	63.188986	151.899994	0.067636	0.457450	0.065536	0.019265
0.072090	8.509649E-5	0.077892	8.625453E-5	2451.282545	140.971876	66.595901	155.910500	0.063604	0.472406	0.072090	0.019816
0.078643	8.707735E-5	0.085017	8.836043E-5	2675.509883	143.916483	70.217082	160.132422	0.059851	0.487902	0.078643	0.020278
0.085197	8.906016E-5	0.092794	9.058368E-5	2920.277575	146.970134	74.064609	164.577601	0.056357	0.503943	0.085197	0.020739
0.091750	9.034711E-5	0.101283	9.293242E-5	3187.389842	150.138429	78.152792	169.261356	0.053103	0.520538	0.091750	0.021039
0.098304	9.155757E-5	0.110547	9.541564E-5	3478.985550	153.424944	82.495838	174.197522	0.050071	0.537695	0.098304	0.021321
0.104858	9.321814E-5	0.120661	9.804352E-5	3797.237150	156.834413	87.108926	179.401779	0.047245	0.555420	0.104858	0.021708
0.117965	9.564125E-5	0.131698	0.000101	4144.573060	160.372456	92.009174	184.891895	0.044611	0.573722	0.117965	0.022272
0.131072	9.880476E-5	0.143744	0.000104	4523.715557	164.043473	97.213792	190.685035	0.042152	0.592610	0.131072	0.023009
0.144179	0.000103	0.156895	0.000107	4937.505576	167.853788	102.742139	196.801527	0.039858	0.612093	0.144179	0.023964
0.157286	0.000103	0.171248	0.000110	5389.189083	171.808629	108.614150	203.261503	0.037717	0.632181	0.157286	0.024077
0.170394	0.000112	0.186913	0.000114	5882.187729	175.914043	114.851042	210.086916	0.035716	0.652882	0.170394	0.026178
0.183501	0.000126	0.204012	0.000117	6420.264990	180.177344	121.476531	217.302607	0.033846	0.674205	0.183501	0.029271
0.399815	0.000144	0.222673	0.000121	7007.639072	184.603601	128.513525	224.931580	0.032098	0.696159	0.399815	0.033476
0.599722	0.000186	0.243043	0.000126	7648.611092	189.202000	135.989250	233.003161	0.030463	0.718752	0.599722	0.043302
0.799629	0.000220	0.265275	0.000130	8348.271901	193.980235	143.932091	241.546638	0.028934	0.741994	0.799629	0.051189
0.999537	0.000251	0.289543	0.000135	9112.000115	198.945908	152.370837	250.591992	0.027501	0.765891	0.999537	0.058377
1.199444	0.000283	0.316028	0.000140	9945.534444	204.108812	161.337527	260.173413	0.026160	0.790449	1.199444	0.065981
1.399351	0.000315	0.344935	0.000146	10855.324520	209.479484	170.867040	270.327948	0.024903	0.815674	1.399351	0.073373
1.599258	0.000348	0.376491	0.000152	11848.454220	215.065967	180.992591	281.090178	0.023724	0.841568	1.599258	0.080926
1.799166	0.000379	0.410934	0.000158	12932.139364	220.883235	191.755448	292.505650	0.022619	0.868130	1.799166	0.088316
1.999073	0.000413	0.448527	0.000164	14115.105846	226.943153	203.197026	304.618164	0.021581	0.895365	1.999073	0.096269
2.198980	0.000444	0.489551	0.000172	15406.374509	233.259856	215.361218	317.475377	0.020607	0.923267	2.198980	0.103282
2.398888	0.000474	0.534336	0.000179	16815.860784	239.846146	228.291338	331.124008	0.019691	0.951824	2.398888	0.110438
2.598795	0.000504	0.583215	0.000188	18353.889411	246.723313	242.041691	345.624902	0.018831	0.981025	2.598795	0.117340
2.798702	0.000538	0.636563	0.000197	20032.937773	253.908540	256.665249	361.035451	0.018022	1.010857	2.798702	0.125378
2.998610	0.000567	0.694801	0.000206	21865.752157	261.419171	272.213187	377.412245	0.017260	1.041290	2.998610	0.132050
3.198517	0.000595	0.758349	0.000216	23865.627196	269.283870	288.751724	394.830800	0.016544	1.072295	3.198517	0.138604
3.398424	0.000627	0.827725	0.000228	26048.876067	277.526276	306.344352	413.361459	0.015869	1.103839	3.398424	0.145901
3.598332	0.000653	0.903445	0.000240	28432.036330	286.173652	325.056247	433.078425	0.015232	1.135871	3.598332	0.152094
3.798239	0.000679	0.986084	0.000253	31032.989354	295.258080	344.958487	454.063533	0.014632	1.168329	3.798239	0.158222
3.998146	0.000706	1.076294	0.000267	33871.549376	304.818162	366.131424	476.409835	0.014065	1.201147	3.998146	0.164293
4.198053	0.000734	1.174760	0.000282	36970.103357	314.892254	388.654151	500.209137	0.013530	1.234245	4.198053	0.170896
4.397961	0.000759	1.282207	0.000298	40352.056898	325.524679	412.609740	525.559810	0.013024	1.267522	4.397961	0.176770
4.597868	0.000792	1.399517	0.000316	44042.977547	336.769560	438.092972	552.575052	0.012546	1.300869	4.597868	0.184504
4.797775	0.000821	1.527544	0.000335	48071.976838	348.683256	465.198658	581.368906	0.012094	1.334158	4.797775	0.191294
4.997683	0.000864	1.667277	0.000357	52469.894568	361.328165	494.022508	612.059050	0.011665	1.367241	4.997683	0.201270
5.197590	0.000900	1.819793	0.000380	57269.810115	374.778317	524.669917	644.776945	0.011259	1.399947	5.197590	0.209549
5.397497	0.000953	1.986257	0.000405	62508.808704	389.112541	557.244518	679.654340	0.010873	1.432091	5.397497	0.221853
5.597405	0.000984	2.167971	0.000432	68226.137692	404.429074	591.868453	716.848061	0.010507	1.463467	5.597405	0.229210
5.797312	0.001021	2.366260	0.000462	74467.476712	420.828905	628.655353	756.508109	0.010159	1.493850	5.797312	0.237720
5.997219	0.001066	2.582751	0.000495	81280.124400	438.425878	667.718189	798.789603	0.009828	1.522990	5.997219	0.248157
6.197127	0.001083	2.819014	0.000531	88715.140941	457.356580	709.186554	843.872389	0.009512	1.550621	6.197127	0.252271
6.397034	0.001116	3.076883	0.000571	96831.227357	477.763026	753.174339	891.924377	0.009211	1.576460	6.397034	0.259883
6.596941	0.001167	3.358306	0.000614	105688.791626	499.810636	799.801721	943.129612	0.008924	1.600209	6.596941	0.271790
6.796849	0.001217	3.665545	0.000662	115355.354306	523.693784	849.204728	997.699278	0.008649	1.621567	6.796849	0.283472
6.996756	0.001241	4.000855	0.000715	125908.528021	549.610474	901.483819	1055.814732	0.008386	1.640223	6.996756	0.288958
7.196663	0.001257	4.366812	0.000774	137425.921355	577.795455	956.751478	1117.685545	0.008133	1.655865	7.196663	0.292617
7.396570	0.001265	4.766327	0.000839	149997.018170	608.504488	1015.103087	1183.516789	0.007890	1.668193	7.396570	0.294547
7.596478	0.001328	5.202281	0.000911	163718.056197	642.021773	1076.619269	1253.515459	0.007657	1.676920	7.596478	0.309329
7.796385	0.001375	5.678244	0.000991	178694.641263	678.658847	1141.356392	1327.882616	0.007431	1.681782	7.796385	0.320301
7.996292	0.001372	6.197694	0.001080	195041.945137	718.749005	1209.328339	1406.796063	0.007213	1.682546	7.996292	0.319412
8.196200	0.001421	6.764542	0.001179	212883.263041	762.659374	1280.518360	1490.428325	0.007001	1.679017	8.196200	0.330936
8.396107	0.001532	7.383341	0.001290	232357.545656	810.771526	1354.837002	1578.902710	0.006795	1.671047	8.396107	0.356656
8.596014	0.001548	8.058732	0.001414	253614.814382	863.466515	1432.090152	1672.260932	0.006594	1.658536	8.596014	0.360536
