MicroRheology Analysis v9.2.8
10/03/18 5:12:42 PM

Correlation Mode:	Cross
Geometry:	Transmission
Multi-Tau Duration (s):	120
Echo Duration (s):	60
Wavelength (nm):	685.0
Temperature (°C):	25.00
Cuvette Thickness (mm):	5.00
Absorption Length (mm):	155.312
Solvent:	Water
Solvent Refractive Index:	1.329
Particle Radius (nm):	300.0
Mean Count Rate (kHz):	571.6
l* (microns):	626.27



Lag Time (s)	Mean Square Displacement (micron^2)	Fit Lag Time (s)	Mean Square Displacement Fit (micron^2)	Frequency(rad/s)	G1 (Pa)	G2 (Pa)	G* (Pa)	Complex Viscosity (Pa s)	Loss Tangent (-)	Time (s)	Creep Compliance (1/Pa)

2.812500E-6	3.020422E-6	2.812503E-6	3.063527E-6	0.142921	0.222170	3.589099	3.595969	25.160554	16.154743	2.812500E-6	0.000692
3.012500E-6	3.204711E-6	3.080184E-6	3.273707E-6	0.156524	0.304740	3.925065	3.936877	25.151836	12.880038	3.012500E-6	0.000734
3.212500E-6	3.411258E-6	3.373297E-6	3.496262E-6	0.171420	0.404935	4.287500	4.306580	25.123012	10.588111	3.212500E-6	0.000781
3.612500E-6	3.640001E-6	3.694345E-6	3.731783E-6	0.187734	0.525149	4.677290	4.706678	25.071029	8.906591	3.612500E-6	0.000833
4.012500E-6	3.975301E-6	4.045926E-6	3.980764E-6	0.205598	0.667958	5.095296	5.138892	24.994833	7.628167	4.012500E-6	0.000910
4.412500E-6	4.211186E-6	4.430953E-6	4.243746E-6	0.225164	0.836118	5.542185	5.604900	24.892577	6.628472	4.412500E-6	0.000964
4.812500E-6	4.454869E-6	4.852611E-6	4.521263E-6	0.246594	1.032478	6.018212	6.106135	24.761905	5.828904	4.812500E-6	0.001020
5.212500E-6	4.739734E-6	5.314455E-6	4.813889E-6	0.270059	1.260065	6.523687	6.644265	24.603007	5.177263	5.212500E-6	0.001085
5.612500E-6	5.001100E-6	5.820162E-6	5.122060E-6	0.295760	1.522007	7.058475	7.220704	24.414080	4.637610	5.612500E-6	0.001145
6.012500E-6	5.339881E-6	6.374075E-6	5.446388E-6	0.323908	1.821456	7.622091	7.836707	24.194266	4.184614	6.012500E-6	0.001223
6.412500E-6	5.606170E-6	6.980647E-6	5.787299E-6	0.354731	2.161698	8.213997	8.493685	23.944045	3.799789	6.412500E-6	0.001284
7.212500E-6	5.954809E-6	7.645085E-6	6.145383E-6	0.388494	2.545879	8.832851	9.192429	23.661692	3.469471	7.212500E-6	0.001363
8.012500E-6	6.399132E-6	8.372589E-6	6.520950E-6	0.425462	2.977205	9.477402	9.934027	23.348785	3.183322	8.012500E-6	0.001465
8.812500E-6	6.876908E-6	9.169320E-6	6.914525E-6	0.465951	3.458791	10.145817	10.719181	23.004974	2.933342	8.812500E-6	0.001575
9.612500E-6	7.222008E-6	1.004207E-5	7.326620E-6	0.510293	3.993657	10.836029	11.548542	22.631203	2.713310	9.612500E-6	0.001654
1.041250E-5	7.569059E-6	1.099772E-5	7.757469E-6	0.558865	4.584434	11.545185	12.422091	22.227371	2.518345	1.041250E-5	0.001733
1.121250E-5	7.832827E-6	1.204422E-5	8.207446E-6	0.612048	5.233656	12.270499	13.340027	21.795714	2.344537	1.121250E-5	0.001793
1.201250E-5	8.206173E-6	1.319046E-5	8.676982E-6	0.670292	5.943605	13.008712	14.302203	21.337264	2.188690	1.201250E-5	0.001879
1.281250E-5	8.594707E-6	1.444592E-5	9.166338E-6	0.734082	6.716094	13.756079	15.308025	20.853285	2.048226	1.281250E-5	0.001968
1.441250E-5	9.082206E-6	1.582062E-5	9.675616E-6	0.803936	7.552701	14.508834	16.356943	20.346073	1.921013	1.441250E-5	0.002079
1.601250E-5	9.590712E-6	1.732629E-5	1.020513E-5	0.880446	8.454437	15.262651	17.447808	19.817021	1.805283	1.601250E-5	0.002196
1.761250E-5	1.012573E-5	1.897516E-5	1.075495E-5	0.964234	9.421941	16.013209	18.579447	19.268615	1.699566	1.761250E-5	0.002318
1.921250E-5	1.062275E-5	2.078064E-5	1.132508E-5	1.056004	10.455141	16.755715	19.750037	18.702621	1.602629	1.921250E-5	0.002432
2.081250E-5	1.111400E-5	2.275850E-5	1.191579E-5	1.156494	11.553727	17.485687	20.958002	18.122019	1.513424	2.081250E-5	0.002545
2.241250E-5	1.156668E-5	2.492409E-5	1.252676E-5	1.266560	12.716615	18.198182	22.201039	17.528617	1.431055	2.241250E-5	0.002648
2.401250E-5	1.208185E-5	2.729647E-5	1.315820E-5	1.387095	13.942246	18.888495	23.476828	16.925180	1.354767	2.401250E-5	0.002766
2.561250E-5	1.271874E-5	2.989417E-5	1.380963E-5	1.519101	15.228548	19.551950	24.782805	16.314127	1.283901	2.561250E-5	0.002912
2.881250E-5	1.344673E-5	3.273892E-5	1.448091E-5	1.663675	16.572763	20.183891	26.116009	15.697779	1.217895	2.881250E-5	0.003079
3.201250E-5	1.421431E-5	3.585451E-5	1.517178E-5	1.821999	17.971623	20.779949	27.473360	15.078695	1.156264	3.201250E-5	0.003254
3.521250E-5	1.493862E-5	3.926681E-5	1.588188E-5	1.995370	19.421842	21.336315	28.852145	14.459544	1.098573	3.521250E-5	0.003420
3.841250E-5	1.555884E-5	4.300331E-5	1.661062E-5	2.185290	20.918923	21.848804	30.248496	13.841870	1.044452	3.841250E-5	0.003562
4.161250E-5	1.618218E-5	4.709629E-5	1.735773E-5	2.393256	22.458391	22.314228	31.659187	13.228500	0.993581	4.161250E-5	0.003705
4.481250E-5	1.678901E-5	5.157849E-5	1.812242E-5	2.621019	24.035251	22.729485	33.080550	12.621253	0.945673	4.481250E-5	0.003844
4.801250E-5	1.744953E-5	5.648703E-5	1.890402E-5	2.870440	25.644348	23.092126	34.509113	12.022239	0.900476	4.801250E-5	0.003995
5.121250E-5	1.818806E-5	6.186256E-5	1.970181E-5	3.143596	27.280452	23.400184	35.941503	11.433246	0.857764	5.121250E-5	0.004164
5.761250E-5	1.903070E-5	6.775003E-5	2.051506E-5	3.442791	28.937618	23.651915	37.373772	10.855660	0.817341	5.761250E-5	0.004357
6.401250E-5	1.994827E-5	7.419685E-5	2.134272E-5	3.770423	30.610260	23.846516	38.802634	10.291320	0.779037	6.401250E-5	0.004567
7.041250E-5	2.087808E-5	8.125834E-5	2.218412E-5	4.129249	32.292631	23.983467	40.224628	9.741391	0.742692	7.041250E-5	0.004780
7.681250E-5	2.172366E-5	8.899095E-5	2.303801E-5	4.522230	33.978746	24.062782	41.636194	9.207004	0.708172	7.681250E-5	0.004974
8.321250E-5	2.251147E-5	9.746014E-5	2.390351E-5	4.952541	35.663416	24.085303	43.034649	8.689409	0.675350	8.321250E-5	0.005154
8.961250E-5	2.316093E-5	0.000107	2.477948E-5	5.423882	37.341062	24.051951	44.416790	8.189115	0.644115	8.961250E-5	0.005303
9.601250E-5	2.387613E-5	0.000117	2.566458E-5	5.940094	39.006158	23.964335	45.779577	7.706877	0.614373	9.601250E-5	0.005467
0.000102	2.470858E-5	0.000128	2.655799E-5	6.505348	40.654184	23.824710	47.120903	7.243410	0.586033	0.000102	0.005657
0.000115	2.564672E-5	0.000140	2.745798E-5	7.124502	42.280041	23.635313	48.437897	6.798777	0.559018	0.000115	0.005872
0.000128	2.669582E-5	0.000154	2.836379E-5	7.802437	43.879866	23.399266	49.728949	6.373515	0.533257	0.000128	0.006112
0.000141	2.773430E-5	0.000168	2.927379E-5	8.544974	45.449766	23.119602	50.992129	5.967500	0.508685	0.000141	0.006350
0.000154	2.861590E-5	0.000184	3.018681E-5	9.358210	46.986168	22.799826	52.225780	5.580745	0.485245	0.000154	0.006552
0.000166	2.944527E-5	0.000202	3.110166E-5	10.248790	48.486031	22.443712	53.428601	5.213162	0.462890	0.000166	0.006742
0.000179	3.015127E-5	0.000221	3.201669E-5	11.224025	49.947327	22.055235	54.600081	4.864572	0.441570	0.000179	0.006903
0.000192	3.088446E-5	0.000242	3.293102E-5	12.292345	51.367563	21.638267	55.739044	4.534452	0.421244	0.000192	0.007071
0.000205	3.173539E-5	0.000265	3.384307E-5	13.462197	52.745088	21.197153	56.845084	4.222571	0.401879	0.000205	0.007266
0.000230	3.270733E-5	0.000290	3.475175E-5	14.743189	54.079086	20.736133	57.918345	3.928482	0.383441	0.000230	0.007489
0.000256	3.375071E-5	0.000318	3.565564E-5	16.146182	55.369042	20.259340	58.959068	3.651580	0.365897	0.000256	0.007727
0.000282	3.477681E-5	0.000348	3.655363E-5	17.682950	56.614386	19.770954	59.967319	3.391251	0.349221	0.000282	0.007962
0.000307	3.563895E-5	0.000381	3.744465E-5	19.365764	57.815435	19.275254	60.943909	3.146992	0.333393	0.000307	0.008160
0.000333	3.641898E-5	0.000417	3.832739E-5	21.208727	58.972725	18.776258	61.889661	2.918122	0.318389	0.000333	0.008338
0.000358	3.707603E-5	0.000457	3.920109E-5	23.226966	60.087344	18.277933	62.805825	2.704005	0.304189	0.000358	0.008489
0.000384	3.777146E-5	0.000501	4.006474E-5	25.437442	61.160473	17.784055	63.693611	2.503931	0.290777	0.000384	0.008648
0.000410	3.856463E-5	0.000548	4.091714E-5	27.858239	62.193715	17.298326	64.554553	2.317252	0.278136	0.000410	0.008830
0.000461	3.946710E-5	0.000600	4.175776E-5	30.509439	63.188870	16.824243	65.390278	2.143280	0.266253	0.000461	0.009036
0.000512	4.042793E-5	0.000658	4.258573E-5	33.412806	64.148099	16.365142	66.202692	1.981357	0.255115	0.000512	0.009256
0.000563	4.135587E-5	0.000720	4.340058E-5	36.592544	65.073763	15.924137	66.993826	1.830805	0.244709	0.000563	0.009469
0.000614	4.211658E-5	0.000789	4.420148E-5	40.075171	65.968248	15.504181	67.765695	1.690965	0.235025	0.000614	0.009643
0.000666	4.279673E-5	0.000864	4.498806E-5	43.889149	66.834099	15.108093	68.520444	1.561216	0.226054	0.000666	0.009799
0.000717	4.336447E-5	0.000946	4.576012E-5	48.065561	67.674360	14.738465	69.260677	1.440963	0.217785	0.000717	0.009929
0.000768	4.395026E-5	0.001036	4.651724E-5	52.640361	68.491540	14.397665	69.988455	1.329559	0.210211	0.000768	0.010063
0.000819	4.461311E-5	0.001134	4.725937E-5	57.649472	69.288893	14.088026	70.706599	1.226492	0.203323	0.000819	0.010214
0.000922	4.537303E-5	0.001242	4.798649E-5	63.136284	70.069212	13.811571	71.417463	1.131164	0.197113	0.000922	0.010388
0.001024	4.618230E-5	0.001361	4.869855E-5	69.144956	70.835472	13.570314	72.123626	1.043079	0.191575	0.001024	0.010574
0.001126	4.697423E-5	0.001490	4.939597E-5	75.724757	71.590836	13.366078	72.827878	0.961745	0.186701	0.001126	0.010755
0.001229	4.763085E-5	0.001632	5.007867E-5	82.931207	72.338355	13.200545	73.532931	0.886674	0.182483	0.001229	0.010905
0.001331	4.822367E-5	0.001787	5.074749E-5	90.824241	73.080798	13.075323	74.241277	0.817417	0.178916	0.001331	0.011041
0.001434	4.870862E-5	0.001957	5.140258E-5	99.466449	73.821478	12.991976	74.956001	0.753581	0.175992	0.001434	0.011152
0.001536	4.920600E-5	0.002144	5.204482E-5	108.933016	74.563171	12.951904	75.679709	0.694736	0.173704	0.001536	0.011266
0.001638	4.976520E-5	0.002348	5.267487E-5	119.300161	75.308783	12.956526	76.415210	0.640529	0.172045	0.001638	0.011394
0.001843	5.041690E-5	0.002571	5.329352E-5	130.653427	76.061153	13.007189	77.165316	0.590611	0.171010	0.001843	0.011543
0.002048	5.112233E-5	0.002816	5.390190E-5	143.086149	76.823232	13.105241	77.933025	0.544658	0.170590	0.002048	0.011705
0.002253	5.183879E-5	0.003084	5.450100E-5	156.703522	77.597768	13.252008	78.721212	0.502358	0.170778	0.002253	0.011869
0.002458	5.245240E-5	0.003377	5.509198E-5	171.618272	78.387267	13.448789	79.532594	0.463427	0.171569	0.002458	0.012009
0.002662	5.301970E-5	0.003699	5.567606E-5	187.949767	79.194464	13.696940	80.370201	0.427615	0.172953	0.002662	0.012139
0.002867	5.347950E-5	0.004051	5.625484E-5	205.834479	80.022075	13.997882	81.237142	0.394672	0.174925	0.002867	0.012244
0.003072	5.395975E-5	0.004436	5.682962E-5	225.423235	80.872584	14.353059	82.136381	0.364365	0.177477	0.003072	0.012354
0.003277	5.450951E-5	0.004858	5.740204E-5	246.876820	81.748524	14.763995	83.071035	0.336488	0.180603	0.003277	0.012480
0.003686	5.512660E-5	0.005321	5.797374E-5	270.374025	82.652112	15.232205	84.043986	0.310843	0.184293	0.003686	0.012622
0.004096	5.580015E-5	0.005827	5.854660E-5	296.102192	83.586017	15.759417	85.058694	0.287261	0.188541	0.004096	0.012776
0.004506	5.647252E-5	0.006381	5.912259E-5	324.281538	84.552560	16.347456	86.118376	0.265567	0.193341	0.004506	0.012930
0.004915	5.703613E-5	0.006989	5.970357E-5	355.143804	85.554050	16.998215	87.226342	0.245609	0.198684	0.004915	0.013059
0.005325	5.759414E-5	0.007654	6.029161E-5	388.943041	86.592674	17.713670	88.385889	0.227246	0.204563	0.005325	0.013187
0.005734	5.805203E-5	0.008382	6.088903E-5	425.953222	87.671015	18.496102	89.600852	0.210354	0.210972	0.005734	0.013291
0.006144	5.851704E-5	0.009180	6.149813E-5	466.490414	88.791240	19.347895	90.874779	0.194805	0.217903	0.006144	0.013398
0.006554	5.909541E-5	0.010054	6.212133E-5	510.885299	89.955555	20.271503	92.211364	0.180493	0.225350	0.006554	0.013530
0.007373	5.975777E-5	0.011010	6.276101E-5	559.500377	91.166640	21.269834	93.614967	0.167319	0.233307	0.007373	0.013682
0.008192	6.048472E-5	0.012058	6.342010E-5	612.754723	92.426186	22.345616	95.089045	0.155183	0.241767	0.008192	0.013848
0.009011	6.123743E-5	0.013206	6.410118E-5	671.060003	93.737303	23.502238	96.638694	0.144009	0.250724	0.009011	0.014021
0.009830	6.185047E-5	0.014462	6.480717E-5	734.934370	95.101641	24.742964	98.267677	0.133709	0.260174	0.009830	0.014161
0.010650	6.247936E-5	0.015839	6.554125E-5	804.871798	96.522080	26.071491	99.981171	0.124220	0.270109	0.010650	0.014305
0.011469	6.303081E-5	0.017346	6.630660E-5	881.472954	98.000834	27.491784	101.783897	0.115470	0.280526	0.011469	0.014431
0.012288	6.360310E-5	0.018997	6.710639E-5	965.359511	99.540441	29.008017	103.681071	0.107402	0.291419	0.012288	0.014562
0.013107	6.426920E-5	0.020805	6.794447E-5	1057.225102	101.143668	30.624882	105.678403	0.099958	0.302786	0.013107	0.014715
0.014746	6.501706E-5	0.022785	6.882423E-5	1157.841314	102.812806	32.347123	107.781304	0.093088	0.314622	0.014746	0.014886
0.016384	6.585456E-5	0.024953	6.974986E-5	1268.017848	104.550937	34.180099	109.996262	0.086747	0.326923	0.016384	0.015078
0.018022	6.680262E-5	0.027328	7.072545E-5	1388.686220	106.361080	36.129743	112.330039	0.080889	0.339690	0.018022	0.015295
0.019661	6.766489E-5	0.029929	7.175526E-5	1520.861885	108.245484	38.201754	114.788758	0.075476	0.352918	0.019661	0.015492
0.021299	6.857121E-5	0.032777	7.284399E-5	1665.590835	110.207693	40.402736	117.380223	0.070474	0.366605	0.021299	0.015700
0.022938	6.933937E-5	0.035896	7.399666E-5	1824.101929	112.250489	42.739593	120.111802	0.065847	0.380752	0.022938	0.015876
0.024576	7.005522E-5	0.039312	7.521844E-5	1997.678944	114.377938	45.220280	122.992627	0.061568	0.395358	0.024576	0.016040
0.026214	7.092202E-5	0.043053	7.651497E-5	2187.819535	116.592605	47.852520	126.030549	0.057606	0.410425	0.026214	0.016238
0.029491	7.205040E-5	0.047150	7.789207E-5	2396.030692	118.898098	50.644620	129.234806	0.053937	0.425950	0.029491	0.016496
0.032768	7.339397E-5	0.051638	7.935629E-5	2624.023739	121.298892	53.606394	132.616238	0.050539	0.441936	0.032768	0.016804
0.036045	7.485582E-5	0.056552	8.091440E-5	2873.749788	123.798319	56.747622	136.184861	0.047389	0.458388	0.036045	0.017139
0.039322	7.616517E-5	0.061934	8.257393E-5	3147.225464	126.400740	60.078949	139.952232	0.044468	0.475305	0.039322	0.017439
0.042598	7.741040E-5	0.067828	8.434228E-5	3446.728244	129.110781	63.612168	143.930892	0.041759	0.492694	0.042598	0.017724
0.045875	7.832687E-5	0.074282	8.622803E-5	3774.770980	131.932329	67.359151	148.133031	0.039243	0.510558	0.045875	0.017933
0.049152	7.929538E-5	0.081351	8.824076E-5	4133.998710	134.870901	71.333467	152.573338	0.036907	0.528902	0.049152	0.018155
0.052429	8.053374E-5	0.089095	9.039033E-5	4527.456493	137.930308	75.548470	157.265193	0.034736	0.547729	0.052429	0.018439
0.058982	8.216949E-5	0.097572	9.268659E-5	4958.259485	141.117633	80.020493	162.226588	0.032718	0.567048	0.058982	0.018813
0.065536	8.420405E-5	0.106858	9.514186E-5	5430.171705	144.436846	84.765100	167.472758	0.030841	0.586866	0.065536	0.019279
0.072090	8.645738E-5	0.117028	9.776862E-5	5946.920140	147.894582	89.799916	173.022635	0.029094	0.607189	0.072090	0.019795
0.078643	8.841883E-5	0.128165	0.000101	6512.845661	151.497488	95.144469	178.896503	0.027468	0.628027	0.078643	0.020244
0.085197	9.039456E-5	0.140361	0.000104	7132.707242	155.250446	100.817575	185.113166	0.025953	0.649387	0.085197	0.020696
0.091750	9.176365E-5	0.153720	0.000107	7811.390882	159.163069	106.843017	191.698494	0.024541	0.671280	0.091750	0.021010
0.098304	9.306591E-5	0.168347	0.000110	8554.887409	163.239677	113.242215	198.673076	0.023223	0.693717	0.098304	0.021308
0.104858	9.473609E-5	0.184370	0.000114	9368.932790	167.490520	120.041811	206.065792	0.021995	0.716708	0.104858	0.021690
0.117965	9.697223E-5	0.201917	0.000118	10260.605295	171.922312	127.268278	213.903006	0.020847	0.740266	0.117965	0.022202
0.131072	9.989032E-5	0.221130	0.000122	11237.097713	176.543613	134.950122	222.214272	0.019775	0.764401	0.131072	0.022871
0.144179	0.000103	0.242175	0.000127	12306.428453	181.364741	143.119886	231.033484	0.018773	0.789127	0.144179	0.023673
0.157286	0.000103	0.265222	0.000132	13477.661031	186.393470	151.809614	240.392772	0.017836	0.814458	0.157286	0.023623
0.170394	0.000112	0.290462	0.000137	14760.141645	191.642226	161.057395	250.332234	0.016960	0.840407	0.170394	0.025720
0.183501	0.000126	0.318107	0.000143	16164.865675	197.120215	170.901246	260.890044	0.016139	0.866990	0.183501	0.028875
0.399815	0.000145	0.348379	0.000149	17703.180380	202.839714	181.383626	272.110216	0.015371	0.894221	0.399815	0.033199
0.599722	0.000191	0.381531	0.000156	19387.928124	208.812979	192.550281	284.039559	0.014650	0.922118	0.599722	0.043845
0.799630	0.000229	0.417841	0.000163	21233.094647	215.053152	204.450527	296.728624	0.013975	0.950698	0.799630	0.052487
0.999537	0.000264	0.457605	0.000171	23254.022254	221.571544	217.133984	310.227523	0.013341	0.979972	0.999537	0.060509
1.199450	0.000301	0.501160	0.000179	25466.802310	228.386013	230.660812	324.599108	0.012746	1.009960	1.199450	0.069000
1.399350	0.000338	0.548848	0.000188	27890.494378	235.509726	245.090596	339.903267	0.012187	1.040681	1.399350	0.077300
1.599260	0.000373	0.601079	0.000198	30544.681103	242.959558	260.489262	356.207808	0.011662	1.072151	1.599260	0.085415
1.799170	0.000413	0.658284	0.000209	33451.336961	250.753764	276.929460	373.587173	0.011168	1.104388	1.799170	0.094536
1.999070	0.000448	0.720931	0.000221	36634.771958	258.912115	294.490657	392.122723	0.010704	1.137416	1.999070	0.102503
2.198980	0.000485	0.789540	0.000233	40121.829829	267.448898	313.248445	411.890157	0.010266	1.171246	2.198980	0.110990
2.398890	0.000523	0.864683	0.000247	43939.619777	276.391845	333.300591	432.991612	0.009854	1.205899	2.398890	0.119660
2.598800	0.000558	0.946966	0.000262	48121.704435	285.756066	354.735575	455.514937	0.009466	1.241393	2.598800	0.127791
2.798700	0.000596	1.037093	0.000278	52700.491411	295.571642	377.665440	479.576667	0.009100	1.277746	2.798700	0.136557
2.998610	0.000632	1.135789	0.000296	57715.760361	305.861662	402.202705	505.290384	0.008755	1.314982	2.998610	0.144600
3.198520	0.000669	1.243880	0.000315	63208.646698	316.651145	428.466007	532.776751	0.008429	1.353117	3.198520	0.153107
3.398430	0.000708	1.362245	0.000336	69223.708736	327.972919	456.594059	562.178237	0.008121	1.392170	3.398430	0.162069
3.598340	0.000743	1.491887	0.000359	75812.354962	339.852861	486.723794	593.632899	0.007830	1.432160	3.598340	0.170085
3.798240	0.000782	1.633858	0.000384	83027.399291	352.323205	519.007216	627.295888	0.007555	1.473100	3.798240	0.179104
3.998150	0.000824	1.789342	0.000411	90927.899897	365.422683	553.618953	663.345824	0.007295	1.515010	3.998150	0.188767
4.198060	0.000856	1.959659	0.000441	99581.076504	379.188759	590.743846	701.970374	0.007049	1.557915	4.198060	0.196077
4.397970	0.000899	2.146150	0.000474	109059.345195	393.653610	630.564577	743.353785	0.006816	1.601826	4.397970	0.205815
4.597870	0.000936	2.350385	0.000510	119437.375594	408.864623	673.300376	787.720557	0.006595	1.646756	4.597870	0.214387
4.797780	0.000967	2.574041	0.000550	130802.987816	424.870815	719.192871	835.316464	0.006386	1.692733	4.797780	0.221358
4.997690	0.000999	2.819041	0.000593	143253.189583	441.710160	768.473518	886.374308	0.006187	1.739769	4.997690	0.228838
5.197590	0.001029	3.087300	0.000641	156885.496744	459.442644	821.426763	941.185141	0.005999	1.787877	5.197590	0.235587
5.397500	0.001062	3.381122	0.000694	171816.519209	478.117134	878.337042	1000.035976	0.005820	1.837075	5.397500	0.243202
5.597410	0.001096	3.702894	0.000751	188166.038664	497.803507	939.545914	1063.275532	0.005651	1.887383	5.597410	0.250901
5.797320	0.001126	4.055250	0.000815	206074.612545	518.559796	1005.393665	1131.247402	0.005490	1.938819	5.797320	0.257733
5.997230	0.001164	4.441217	0.000885	225685.061556	540.467412	1076.285597	1204.365273	0.005336	1.991398	5.997230	0.266525
6.197130	0.001196	4.863857	0.000961	247162.217837	563.614600	1152.672242	1283.087961	0.005191	2.045143	6.197130	0.273754
6.397040	0.001224	5.326693	0.001046	270683.998990	588.110639	1235.077065	1367.950832	0.005054	2.100076	6.397040	0.280299
6.596950	0.001259	5.833634	0.001139	296445.883546	614.088902	1324.109070	1459.578709	0.004924	2.156217	6.596950	0.288222
6.796850	0.001277	6.388779	0.001242	324655.971864	641.749697	1420.573645	1558.804720	0.004801	2.213595	6.796850	0.292453
