MicroRheology Analysis v9.2.8
10/03/18 5:10:38 PM

Correlation Mode:	Cross
Geometry:	Transmission
Multi-Tau Duration (s):	120
Echo Duration (s):	60
Wavelength (nm):	685.0
Temperature (°C):	25.00
Cuvette Thickness (mm):	5.00
Absorption Length (mm):	Inf
Solvent:	Water
Solvent Refractive Index:	1.329
Particle Radius (nm):	300.0
Mean Count Rate (kHz):	619.5
l* (microns):	552.76



Lag Time (s)	Mean Square Displacement (micron^2)	Fit Lag Time (s)	Mean Square Displacement Fit (micron^2)	Frequency(rad/s)	G1 (Pa)	G2 (Pa)	G* (Pa)	Complex Viscosity (Pa s)	Loss Tangent (-)	Time (s)	Creep Compliance (1/Pa)

2.812500E-6	2.332716E-6	2.812526E-6	2.458025E-6	0.178653	-0.244151	5.515521	5.520922	30.903100	-22.590660	2.812500E-6	0.000534
3.012500E-6	2.499825E-6	3.088382E-6	2.600078E-6	0.196175	-0.034553	6.124164	6.124261	31.218304	-177.241168	3.012500E-6	0.000572
3.212500E-6	2.672112E-6	3.391329E-6	2.752219E-6	0.215419	0.218253	6.770940	6.774457	31.447765	31.023351	3.212500E-6	0.000612
3.612500E-6	2.849661E-6	3.724029E-6	2.914928E-6	0.236549	0.518052	7.455271	7.473249	31.592778	14.390971	3.612500E-6	0.000652
4.012500E-6	3.065242E-6	4.089288E-6	3.088635E-6	0.259755	0.868569	8.175936	8.221943	31.652683	9.413106	4.012500E-6	0.000702
4.412500E-6	3.292796E-6	4.490448E-6	3.273895E-6	0.285234	1.273427	8.931566	9.021890	31.629804	7.013804	4.412500E-6	0.000754
4.812500E-6	3.453669E-6	4.930863E-6	3.471122E-6	0.313210	1.736199	9.720503	9.874339	31.526274	5.598726	4.812500E-6	0.000791
5.212500E-6	3.623984E-6	5.414517E-6	3.680860E-6	0.343932	2.260320	10.540711	10.780336	31.344408	4.663371	5.212500E-6	0.000830
5.612500E-6	3.806954E-6	5.945688E-6	3.903602E-6	0.377672	2.848850	11.389443	11.740331	31.086056	3.997909	5.612500E-6	0.000872
6.012500E-6	4.042634E-6	6.528910E-6	4.139767E-6	0.414713	3.504863	12.264378	12.755353	30.757057	3.499246	6.012500E-6	0.000926
6.412500E-6	4.212142E-6	7.169275E-6	4.389808E-6	0.455399	4.230931	13.162017	13.825320	30.358669	3.110903	6.412500E-6	0.000964
7.212500E-6	4.457476E-6	7.872504E-6	4.654204E-6	0.500070	5.029355	14.079107	14.950441	29.896713	2.799386	7.212500E-6	0.001021
8.012500E-6	4.748548E-6	8.644696E-6	4.933348E-6	0.549120	5.902143	15.011976	16.130552	29.375283	2.543479	8.012500E-6	0.001087
8.812500E-6	5.070646E-6	9.492701E-6	5.227658E-6	0.602978	6.851029	15.956906	17.365467	28.799491	2.329125	8.812500E-6	0.001161
9.612500E-6	5.322957E-6	1.042395E-5	5.537489E-6	0.662127	7.877122	16.909549	18.654273	28.173262	2.146666	9.612500E-6	0.001219
1.041250E-5	5.626908E-6	1.144630E-5	5.863069E-6	0.727070	8.981325	17.865874	19.996341	27.502628	1.989225	1.041250E-5	0.001288
1.121250E-5	5.842234E-6	1.256908E-5	6.204797E-6	0.798392	10.163998	18.821355	21.390425	26.791883	1.851767	1.121250E-5	0.001338
1.201250E-5	6.126828E-6	1.380197E-5	6.562863E-6	0.876713	11.424790	19.771236	22.834789	26.045917	1.730556	1.201250E-5	0.001403
1.281250E-5	6.407385E-6	1.515595E-5	6.937503E-6	0.962699	12.763488	20.711446	24.328392	25.271029	1.622711	1.281250E-5	0.001467
1.441250E-5	6.746268E-6	1.664245E-5	7.328738E-6	1.057142	14.178697	21.636821	25.868658	24.470361	1.526009	1.441250E-5	0.001545
1.601250E-5	7.107168E-6	1.827487E-5	7.736752E-6	1.160827	15.669197	22.543308	27.454043	23.650422	1.438702	1.601250E-5	0.001627
1.761250E-5	7.479380E-6	2.006751E-5	8.161560E-6	1.274702	17.232734	23.425968	29.081663	22.814486	1.359388	1.761250E-5	0.001712
1.921250E-5	7.807339E-6	2.203608E-5	8.603116E-6	1.399726	18.867130	24.280807	30.749410	21.968170	1.286937	1.921250E-5	0.001788
2.081250E-5	8.172673E-6	2.419756E-5	9.061257E-6	1.537031	20.569444	25.103383	32.454304	21.114937	1.220421	2.081250E-5	0.001871
2.241250E-5	8.487740E-6	2.657097E-5	9.535824E-6	1.687803	22.336420	25.889744	34.193486	20.259168	1.159082	2.241250E-5	0.001943
2.401250E-5	8.880182E-6	2.917768E-5	1.002669E-5	1.853372	24.164052	26.635834	35.963441	19.404327	1.102292	2.401250E-5	0.002033
2.561250E-5	9.347812E-6	3.203933E-5	1.053330E-5	2.035146	26.048815	27.338595	37.761614	18.554747	1.049514	2.561250E-5	0.002140
2.881250E-5	9.881142E-6	3.518220E-5	1.105551E-5	2.234788	27.986039	27.994380	39.584135	17.712704	1.000298	2.881250E-5	0.002262
3.201250E-5	1.043656E-5	3.863330E-5	1.159275E-5	2.453991	29.971339	28.600595	41.427952	16.881866	0.954265	3.201250E-5	0.002390
3.521250E-5	1.096001E-5	4.242264E-5	1.214446E-5	2.694726	31.999452	29.154365	43.289051	16.064361	0.911089	3.521250E-5	0.002509
3.841250E-5	1.139062E-5	4.658414E-5	1.271017E-5	2.959035	34.065521	29.653803	45.164231	15.263162	0.870493	3.841250E-5	0.002608
4.161250E-5	1.183345E-5	5.115322E-5	1.328906E-5	3.249282	36.164450	30.097102	47.050005	14.480122	0.832229	4.161250E-5	0.002709
4.481250E-5	1.225528E-5	5.617135E-5	1.388059E-5	3.568031	38.290331	30.482615	48.942203	13.716867	0.796092	4.481250E-5	0.002806
4.801250E-5	1.273517E-5	6.168117E-5	1.448381E-5	3.917969	40.438534	30.809921	50.838236	12.975662	0.761895	4.801250E-5	0.002916
5.121250E-5	1.328114E-5	6.773081E-5	1.509789E-5	4.302340	42.602783	31.077864	52.733583	12.256954	0.729480	5.121250E-5	0.003041
5.761250E-5	1.389829E-5	7.437455E-5	1.572206E-5	4.724309	44.778249	31.286871	54.625634	11.562672	0.698707	5.761250E-5	0.003182
6.401250E-5	1.457118E-5	8.167109E-5	1.635542E-5	5.187743	46.959237	31.436887	56.510599	10.893099	0.669451	6.401250E-5	0.003336
7.041250E-5	1.522984E-5	8.968192E-5	1.699677E-5	5.696594	49.140865	31.528876	58.385740	10.249237	0.641602	7.041250E-5	0.003487
7.681250E-5	1.582013E-5	9.847905E-5	1.764526E-5	6.255442	51.317575	31.563665	60.247476	9.631209	0.615065	7.681250E-5	0.003622
8.321250E-5	1.637295E-5	0.000108	1.829972E-5	6.869031	53.484523	31.542924	62.093077	9.039569	0.589758	8.321250E-5	0.003749
8.961250E-5	1.685133E-5	0.000119	1.895931E-5	7.542764	55.637186	31.468496	63.919971	8.474343	0.565602	8.961250E-5	0.003858
9.601250E-5	1.737866E-5	0.000130	1.962287E-5	8.282582	57.771545	31.342605	65.726024	7.935451	0.542527	9.601250E-5	0.003979
0.000102	1.798691E-5	0.000143	2.028929E-5	9.095127	59.882751	31.167476	67.508188	7.422457	0.520475	0.000102	0.004118
0.000115	1.866983E-5	0.000157	2.095739E-5	9.987185	61.967660	30.946252	69.265153	6.935403	0.499394	0.000115	0.004275
0.000128	1.942782E-5	0.000173	2.162630E-5	10.966914	64.022490	30.681691	70.994685	6.473533	0.479233	0.000128	0.004448
0.000141	2.019085E-5	0.000190	2.229493E-5	12.042697	66.044057	30.377185	72.695191	6.036454	0.459953	0.000141	0.004623
0.000154	2.083541E-5	0.000208	2.296227E-5	13.223914	68.029754	30.036244	74.365472	5.623560	0.441516	0.000154	0.004770
0.000166	2.143360E-5	0.000229	2.362722E-5	14.520965	69.977340	29.662496	76.004551	5.234125	0.423887	0.000166	0.004907
0.000179	2.193104E-5	0.000251	2.428891E-5	15.945260	71.885176	29.259739	77.611925	4.867398	0.407034	0.000179	0.005021
0.000192	2.245283E-5	0.000276	2.494640E-5	17.509542	73.751087	28.831745	79.186440	4.522474	0.390933	0.000192	0.005141
0.000205	2.306892E-5	0.000303	2.559881E-5	19.226931	75.574455	28.382748	80.728426	4.198716	0.375560	0.000205	0.005282
0.000230	2.377559E-5	0.000332	2.624549E-5	21.113019	77.354336	27.916621	82.237649	3.895116	0.360893	0.000230	0.005444
0.000256	2.451882E-5	0.000365	2.688560E-5	23.184087	79.090243	27.437531	83.714304	3.610852	0.346914	0.000256	0.005614
0.000282	2.525381E-5	0.000401	2.751838E-5	25.458122	80.782431	26.949624	85.159165	3.345069	0.333607	0.000282	0.005782
0.000307	2.587408E-5	0.000440	2.814345E-5	27.955361	82.431146	26.456923	86.572874	3.096825	0.320958	0.000307	0.005924
0.000333	2.643593E-5	0.000483	2.876002E-5	30.697452	84.037189	25.963546	87.956551	2.865272	0.308953	0.000333	0.006053
0.000358	2.692355E-5	0.000531	2.936787E-5	33.708533	85.601706	25.473494	89.311539	2.649523	0.297582	0.000358	0.006164
0.000384	2.743695E-5	0.000583	2.996654E-5	37.015138	87.125975	24.990714	90.639238	2.448707	0.286834	0.000384	0.006282
0.000410	2.800903E-5	0.000640	3.055575E-5	40.645997	88.611688	24.519133	91.941390	2.262004	0.276703	0.000410	0.006413
0.000461	2.866103E-5	0.000703	3.113525E-5	44.632908	90.060740	24.062558	93.219867	2.088590	0.267181	0.000461	0.006562
0.000512	2.935775E-5	0.000772	3.170499E-5	49.010537	91.475651	23.624727	94.477100	1.927690	0.258262	0.000512	0.006722
0.000563	3.002714E-5	0.000847	3.226483E-5	53.818148	92.858787	23.209193	95.715312	1.778495	0.249941	0.000563	0.006875
0.000614	3.058119E-5	0.000930	3.281498E-5	59.097600	94.212571	22.819527	96.936780	1.640283	0.242213	0.000614	0.007002
0.000666	3.108472E-5	0.001022	3.335552E-5	64.894106	95.540031	22.459223	98.144354	1.512377	0.235077	0.000666	0.007117
0.000717	3.150649E-5	0.001122	3.388661E-5	71.258945	96.844556	22.131583	99.341205	1.394088	0.228527	0.000717	0.007214
0.000768	3.194069E-5	0.001232	3.440869E-5	78.249596	98.129006	21.839795	100.529988	1.284735	0.222562	0.000768	0.007313
0.000819	3.243208E-5	0.001353	3.492198E-5	85.925536	99.396643	21.587111	101.713794	1.183743	0.217181	0.000819	0.007426
0.000922	3.297821E-5	0.001485	3.542706E-5	94.353319	100.651140	21.376636	102.896126	1.090541	0.212383	0.000922	0.007551
0.001024	3.356871E-5	0.001631	3.592447E-5	103.607997	101.896151	21.211366	104.080486	1.004560	0.208167	0.001024	0.007686
0.001126	3.414559E-5	0.001791	3.641480E-5	113.771320	103.135313	21.094272	105.270419	0.925281	0.204530	0.001126	0.007818
0.001229	3.463330E-5	0.001967	3.689874E-5	124.932372	104.372066	21.028279	106.469323	0.852216	0.201474	0.001229	0.007930
0.001331	3.507112E-5	0.002160	3.737714E-5	137.186134	105.610379	21.016335	107.681189	0.784928	0.198999	0.001331	0.008030
0.001434	3.543004E-5	0.002372	3.785081E-5	150.641425	106.854247	21.061327	108.910099	0.722976	0.197103	0.001434	0.008112
0.001536	3.580515E-5	0.002604	3.832062E-5	165.417930	108.107479	21.166143	110.160032	0.665950	0.195788	0.001536	0.008198
0.001638	3.623701E-5	0.002860	3.878758E-5	181.644605	109.373934	21.333714	111.435115	0.613479	0.195053	0.001638	0.008297
0.001843	3.671013E-5	0.003140	3.925270E-5	199.463225	110.657441	21.566989	112.739542	0.565215	0.194899	0.001843	0.008405
0.002048	3.720395E-5	0.003448	3.971726E-5	219.028566	111.962036	21.869008	114.077829	0.520835	0.195325	0.002048	0.008518
0.002253	3.767393E-5	0.003786	4.018226E-5	240.513626	113.291482	22.242832	115.454335	0.480032	0.196333	0.002253	0.008626
0.002458	3.805118E-5	0.004158	4.064896E-5	264.103606	114.649960	22.691709	116.873979	0.442531	0.197922	0.002458	0.008712
0.002662	3.842550E-5	0.004566	4.111876E-5	290.009598	116.041448	23.218998	118.341622	0.408061	0.200092	0.002662	0.008798
0.002867	3.876327E-5	0.005013	4.159296E-5	318.460195	117.469377	23.828025	119.861709	0.376379	0.202845	0.002867	0.008875
0.003072	3.910971E-5	0.005505	4.207302E-5	349.693793	118.938155	24.522504	121.439853	0.347275	0.206179	0.003072	0.008954
0.003277	3.950824E-5	0.006045	4.256042E-5	383.994517	120.451550	25.306270	123.081205	0.320529	0.210095	0.003277	0.009046
0.003686	3.995624E-5	0.006638	4.305669E-5	421.659947	122.013577	26.183379	124.791355	0.295953	0.214594	0.003686	0.009148
0.004096	4.042584E-5	0.007289	4.356343E-5	463.023175	123.627959	27.158052	126.575795	0.273368	0.219676	0.004096	0.009256
0.004506	4.089814E-5	0.008004	4.408240E-5	508.441902	125.298542	28.234753	128.440360	0.252616	0.225340	0.004506	0.009364
0.004915	4.130457E-5	0.008790	4.461543E-5	558.311784	127.029467	29.418386	130.391437	0.233546	0.231587	0.004915	0.009457
0.005325	4.168372E-5	0.009652	4.516427E-5	613.077044	128.824572	30.714114	132.435370	0.216017	0.238418	0.005325	0.009544
0.005734	4.201983E-5	0.010598	4.573080E-5	673.216017	130.687639	32.127338	134.578694	0.199904	0.245833	0.005734	0.009621
0.006144	4.237834E-5	0.011638	4.631708E-5	739.250756	132.622653	33.663891	136.828454	0.185091	0.253832	0.006144	0.009703
0.006554	4.276983E-5	0.012780	4.692530E-5	811.761060	134.633879	35.330213	139.192332	0.171470	0.262417	0.006554	0.009792
0.007373	4.325462E-5	0.014033	4.755762E-5	891.395251	136.724727	37.132787	141.677432	0.158939	0.271588	0.007373	0.009903
0.008192	4.379381E-5	0.015410	4.821617E-5	978.828398	138.899685	39.078860	144.292342	0.147413	0.281346	0.008192	0.010027
0.009011	4.437127E-5	0.016921	4.890353E-5	1074.845194	141.162607	41.176138	147.045422	0.136806	0.291693	0.009011	0.010159
0.009830	4.489684E-5	0.018581	4.962232E-5	1180.279379	143.517326	43.432590	149.945366	0.127042	0.302630	0.009830	0.010279
0.010650	4.540725E-5	0.020404	5.037510E-5	1296.039785	145.968644	45.857303	153.002409	0.118054	0.314159	0.010650	0.010396
0.011469	4.583332E-5	0.022405	5.116462E-5	1423.170883	148.520402	48.459678	156.226279	0.109773	0.326283	0.011469	0.010494
0.012288	4.632170E-5	0.024603	5.199403E-5	1562.769300	151.177203	51.249866	159.627991	0.102144	0.339005	0.012288	0.010606
0.013107	4.688057E-5	0.027016	5.286646E-5	1716.072572	153.943158	54.238577	163.218624	0.095112	0.352329	0.013107	0.010734
0.014746	4.749281E-5	0.029666	5.378527E-5	1884.408652	156.822975	57.437403	167.010481	0.088628	0.366256	0.014746	0.010874
0.016384	4.817839E-5	0.032576	5.475395E-5	2069.261983	159.820692	60.858354	171.015768	0.082646	0.380791	0.016384	0.011031
0.018022	4.891216E-5	0.035771	5.577635E-5	2272.213271	162.942375	64.515408	175.249694	0.077127	0.395940	0.018022	0.011199
0.019661	4.957578E-5	0.039280	5.685657E-5	2495.121057	166.191407	68.422116	179.725262	0.072031	0.411707	0.019661	0.011351
0.021299	5.030633E-5	0.043133	5.799883E-5	2739.841636	169.574332	72.594179	184.459667	0.067325	0.428097	0.021299	0.011518
0.022938	5.094856E-5	0.047364	5.920793E-5	3008.607999	173.095768	77.047903	189.469059	0.062976	0.445117	0.022938	0.011665
0.024576	5.162327E-5	0.052010	6.048878E-5	3303.737887	176.760693	81.799997	194.770588	0.058955	0.462773	0.024576	0.011819
0.026214	5.240903E-5	0.057112	6.184654E-5	3627.764552	180.575917	86.869666	200.384632	0.055236	0.481070	0.026214	0.011999
0.029491	5.336520E-5	0.062715	6.328740E-5	3983.599860	184.547258	92.277086	206.331653	0.051795	0.500019	0.029491	0.012218
0.032768	5.447816E-5	0.068866	6.481703E-5	4374.352611	188.680896	98.043364	212.633445	0.048609	0.519625	0.032768	0.012473
0.036045	5.566411E-5	0.075621	6.644235E-5	4803.425310	192.984278	104.191872	219.314563	0.045658	0.539898	0.036045	0.012745
0.039322	5.670924E-5	0.083038	6.817066E-5	5274.639132	197.463715	110.746571	226.399474	0.042922	0.560845	0.039322	0.012984
0.042598	5.773307E-5	0.091183	7.000991E-5	5792.049882	202.126991	117.733353	233.915504	0.040386	0.582472	0.042598	0.013218
0.045875	5.853391E-5	0.100128	7.196859E-5	6360.186628	206.981930	125.179804	241.891510	0.038032	0.604786	0.045875	0.013402
0.049152	5.945924E-5	0.109949	7.405547E-5	6983.979969	212.039092	133.117430	250.361392	0.035848	0.627797	0.049152	0.013614
0.052429	6.068016E-5	0.120735	7.628143E-5	7669.082439	217.306741	141.577859	259.357880	0.033819	0.651512	0.052429	0.013893
0.058982	6.217267E-5	0.132577	7.865654E-5	8421.397612	222.795134	150.594814	268.917217	0.031933	0.675934	0.058982	0.014235
0.065536	6.388015E-5	0.145581	8.119313E-5	9247.490527	228.514395	160.203571	279.077073	0.030179	0.701066	0.065536	0.014626
0.072090	6.566057E-5	0.159861	8.390444E-5	10154.444515	234.479405	170.445569	289.883224	0.028547	0.726911	0.072090	0.015033
0.078643	6.723431E-5	0.175543	8.680500E-5	11150.519936	240.701551	181.361579	301.378929	0.027028	0.753471	0.078643	0.015394
0.085197	6.887059E-5	0.192762	8.990964E-5	12244.234663	247.197890	192.998106	313.616112	0.025613	0.780743	0.085197	0.015768
0.091750	7.026621E-5	0.211671	9.323623E-5	13445.459954	253.981733	205.400273	326.643525	0.024294	0.808721	0.091750	0.016088
0.098304	7.184055E-5	0.232432	9.680277E-5	14764.328932	261.071949	218.618394	340.518083	0.023064	0.837388	0.098304	0.016448
0.104858	7.375380E-5	0.255234	0.000101	16212.402109	268.490558	232.709125	355.303696	0.021916	0.866731	0.104858	0.016886
0.117965	7.606475E-5	0.280267	0.000105	17802.669703	276.259850	247.731090	371.066298	0.020843	0.896732	0.117965	0.017416
0.131072	7.866026E-5	0.307760	0.000109	19549.112919	284.402263	263.742324	387.871965	0.019841	0.927357	0.131072	0.018010
0.144179	8.145934E-5	0.337948	0.000114	21466.533920	292.949913	280.811954	405.801682	0.018904	0.958566	0.144179	0.018651
0.157286	8.119074E-5	0.371095	0.000119	23572.321590	301.931285	299.006743	424.932387	0.018027	0.990314	0.157286	0.018589
0.170394	8.902211E-5	0.407499	0.000125	25884.407815	311.384963	318.402844	445.354877	0.017206	1.022538	0.170394	0.020382
0.183501	0.000101	0.447470	0.000131	28423.462409	321.350586	339.078330	467.161977	0.016436	1.055166	0.183501	0.023106
0.399815	0.000117	0.491365	0.000137	31211.640273	331.871604	361.112029	490.449446	0.015714	1.088108	0.399815	0.026871
0.599722	0.000152	0.539557	0.000144	34272.776230	343.006491	384.599488	515.335056	0.015036	1.121260	0.599722	0.034898
0.799630	0.000181	0.592486	0.000152	37635.063141	354.806714	409.624186	541.922299	0.014399	1.154500	0.799630	0.041328
0.999537	0.000207	0.650605	0.000160	41326.473293	367.343786	436.286083	570.339376	0.013801	1.187678	0.999537	0.047426
1.199445	0.000234	0.714426	0.000169	45380.127779	380.693876	464.687538	600.718184	0.013237	1.220633	1.199445	0.053634
1.399352	0.000261	0.784497	0.000178	49831.787623	394.941242	494.929996	633.193719	0.012707	1.253174	1.399352	0.059707
1.599260	0.000287	0.861455	0.000189	54719.952606	410.183876	527.120239	667.912089	0.012206	1.285083	1.599260	0.065717
1.799167	0.000313	0.945946	0.000200	60087.314362	426.532465	561.367691	705.027396	0.011733	1.316119	1.799167	0.071764
1.999075	0.000341	1.038746	0.000213	65980.679684	444.118934	597.793897	744.714154	0.011287	1.346022	1.999075	0.077976
2.198982	0.000366	1.140624	0.000227	72453.400462	463.079271	636.502399	787.132591	0.010864	1.374500	2.198982	0.083909
2.398890	0.000395	1.252518	0.000242	79560.299699	483.579029	677.608964	832.467768	0.010463	1.401237	2.398890	0.090433
2.598797	0.000421	1.375383	0.000258	87364.459585	505.796913	721.216649	880.899525	0.010083	1.425902	2.598797	0.096392
2.798705	0.000449	1.510285	0.000276	95932.936950	529.949354	767.444770	932.640227	0.009722	1.448147	2.798705	0.102727
2.998612	0.000478	1.658435	0.000296	105344.100789	556.260069	816.376727	987.874600	0.009378	1.467617	2.998612	0.109380
3.198519	0.000507	1.821096	0.000318	115677.870653	584.989368	868.092954	1046.803677	0.009049	1.483947	3.198519	0.116161
3.398427	0.000538	1.999721	0.000342	127024.387114	616.431250	922.663286	1109.637340	0.008736	1.496782	3.398427	0.123169
3.598334	0.000566	2.195875	0.000368	139484.108833	650.906050	980.124167	1176.572169	0.008435	1.505784	3.598334	0.129637
3.798242	0.000589	2.411306	0.000398	153164.916375	688.778776	1040.496339	1247.817628	0.008147	1.510639	3.798242	0.134877
3.998149	0.000625	2.647801	0.000431	168189.101847	730.444431	1103.751738	1323.562226	0.007869	1.511069	3.998149	0.143106
4.198057	0.000649	2.907554	0.000467	184688.667786	776.323634	1169.795774	1403.958881	0.007602	1.506840	4.198057	0.148555
4.397964	0.000679	3.192748	0.000507	202804.247527	826.881826	1238.486957	1489.155297	0.007343	1.497780	4.397964	0.155467
4.597872	0.000708	3.505896	0.000552	222694.929472	882.628589	1309.621717	1579.285367	0.007092	1.483774	4.597872	0.162013
4.797779	0.000740	3.849781	0.000603	244541.326335	944.060885	1382.843919	1674.368018	0.006847	1.464783	4.797779	0.169517
4.997687	0.000778	4.227449	0.000659	268526.350638	1011.724106	1457.727371	1774.416736	0.006608	1.440835	4.997687	0.178019
5.197594	0.000810	4.642109	0.000723	294869.690012	1086.109572	1533.624066	1879.264957	0.006373	1.412034	5.197594	0.185421
5.397502	0.000858	5.097481	0.000794	323794.146553	1167.663074	1609.693472	1988.605071	0.006142	1.378560	5.397502	0.196412
