MicroRheology Analysis v9.2.8
10/11/18 8:12:25 PM

Correlation Mode:	Cross
Geometry:	Transmission
Multi-Tau Duration (s):	120
Echo Duration (s):	60
Wavelength (nm):	685.0
Temperature (°C):	24.98
Cuvette Thickness (mm):	10.00
Absorption Length (mm):	Inf
Solvent:	Water
Solvent Refractive Index:	1.329
Particle Radius (nm):	300.0
Mean Count Rate (kHz):	129.1
l* (microns):	861.06



Lag Time (s)	Mean Square Displacement (micron^2)	Fit Lag Time (s)	Mean Square Displacement Fit (micron^2)	Frequency(rad/s)	G1 (Pa)	G2 (Pa)	G* (Pa)	Complex Viscosity (Pa s)	Loss Tangent (-)	Time (s)	Creep Compliance (1/Pa)

6.412500E-6	2.698959E-6	6.412538E-6	2.777339E-6	0.079401	-1.629669	19.826842	19.893704	250.546456	-12.166175	6.412500E-6	0.000618
7.212500E-6	3.007958E-6	6.950128E-6	2.928596E-6	0.086057	-0.699859	21.863621	21.874820	254.189536	-31.240038	7.212500E-6	0.000689
8.012500E-6	3.277219E-6	7.532731E-6	3.086351E-6	0.093271	0.401765	23.967766	23.971133	257.003936	59.656172	8.012500E-6	0.000750
8.812500E-6	3.506530E-6	8.164201E-6	3.250730E-6	0.101090	1.682354	26.127772	26.181879	258.995538	15.530482	8.812500E-6	0.000803
9.612500E-6	3.649472E-6	8.848746E-6	3.421853E-6	0.109566	3.147428	28.330195	28.504495	260.159150	9.001062	9.612500E-6	0.000836
1.041250E-5	3.929889E-6	9.590429E-6	3.599707E-6	0.118750	4.800927	30.561975	30.936761	260.519849	6.365849	1.041250E-5	0.000900
1.121250E-5	4.078708E-6	1.039450E-5	3.784465E-6	0.128705	6.645586	32.809576	33.475844	260.098232	4.937048	1.121250E-5	0.000934
1.201250E-5	4.201203E-6	1.126592E-5	3.976117E-6	0.139495	8.681976	35.058151	36.117180	258.912971	4.038038	1.201250E-5	0.000962
1.281250E-5	4.350749E-6	1.221022E-5	4.174672E-6	0.151189	10.909226	37.293912	38.856751	257.007578	3.418566	1.281250E-5	0.000996
1.441250E-5	4.602844E-6	1.323395E-5	4.380241E-6	0.163863	13.324886	39.502508	41.689336	254.415134	2.964566	1.441250E-5	0.001054
1.601250E-5	4.761481E-6	1.434336E-5	4.592744E-6	0.177599	15.925412	41.670833	44.610280	251.185133	2.616625	1.601250E-5	0.001090
1.761250E-5	5.024073E-6	1.554566E-5	4.812169E-6	0.192490	18.704658	43.784186	47.612175	247.348688	2.340817	1.761250E-5	0.001150
1.921250E-5	5.221643E-6	1.684906E-5	5.038552E-6	0.208625	21.656072	45.830900	50.689810	242.971475	2.116307	1.921250E-5	0.001196
2.081250E-5	5.402454E-6	1.826151E-5	5.271752E-6	0.226114	24.771721	47.798533	53.836214	238.093606	1.929560	2.081250E-5	0.001237
2.241250E-5	5.613550E-6	1.979244E-5	5.511736E-6	0.245069	28.042095	49.675728	57.044168	232.767329	1.771470	2.241250E-5	0.001285
2.401250E-5	5.903614E-6	2.145165E-5	5.758390E-6	0.265614	31.457187	51.452525	60.306856	227.047211	1.635637	2.401250E-5	0.001352
2.561250E-5	6.305933E-6	2.324978E-5	6.011585E-6	0.287883	35.005457	53.119113	63.616210	220.979424	1.517452	2.561250E-5	0.001444
2.881250E-5	6.716096E-6	2.519887E-5	6.271236E-6	0.312017	38.675082	54.667618	66.964994	214.619472	1.413510	2.881250E-5	0.001538
3.201250E-5	7.107613E-6	2.731152E-5	6.537177E-6	0.338176	42.453157	56.090520	70.344985	208.012825	1.321233	3.201250E-5	0.001627
3.521250E-5	7.415115E-6	2.960124E-5	6.809205E-6	0.366525	46.326910	57.382242	73.748927	201.211406	1.238637	3.521250E-5	0.001698
3.841250E-5	7.627754E-6	3.208260E-5	7.087093E-6	0.397250	50.283186	58.537871	77.169172	194.258446	1.164164	3.841250E-5	0.001747
4.161250E-5	7.884106E-6	3.477204E-5	7.370664E-6	0.430552	54.308058	59.553450	80.597634	187.195929	1.096586	4.161250E-5	0.001805
4.481250E-5	8.232727E-6	3.768709E-5	7.659689E-6	0.466642	58.388518	60.426889	84.027543	180.068418	1.034910	4.481250E-5	0.001885
4.801250E-5	8.555482E-6	4.084622E-5	7.953870E-6	0.505762	62.511473	61.156571	87.451760	172.910912	0.978326	4.801250E-5	0.001959
5.121250E-5	8.920792E-6	4.427094E-5	8.253022E-6	0.548168	66.662106	61.741259	90.861540	165.754806	0.926182	5.121250E-5	0.002043
5.761250E-5	9.338411E-6	4.798219E-5	8.556743E-6	0.594116	70.828450	62.182594	94.251495	158.641655	0.877932	5.761250E-5	0.002138
6.401250E-5	9.736581E-6	5.200417E-5	8.864739E-6	0.643921	74.997987	62.481511	97.614739	151.594217	0.833109	6.401250E-5	0.002229
7.041250E-5	1.011693E-5	5.636432E-5	9.176786E-6	0.697905	79.158462	62.640389	100.944938	144.639865	0.791329	7.041250E-5	0.002316
7.681250E-5	1.052719E-5	6.108969E-5	9.492451E-6	0.756419	83.297215	62.662040	104.235106	137.800801	0.752271	7.681250E-5	0.002410
8.321250E-5	1.087058E-5	6.620999E-5	9.811329E-6	0.819822	87.404585	62.551118	107.481179	131.103009	0.715650	8.321250E-5	0.002489
8.961250E-5	1.112650E-5	7.176050E-5	1.013318E-5	0.888557	91.468920	62.311186	110.676317	124.557306	0.681228	8.961250E-5	0.002548
9.601250E-5	1.146397E-5	7.777639E-5	1.045758E-5	0.963038	95.481747	61.948195	113.817147	118.185520	0.648796	9.601250E-5	0.002625
0.000102	1.181725E-5	8.429705E-5	1.078416E-5	1.043782	99.432849	61.466866	116.897678	111.994354	0.618175	0.000102	0.002706
0.000115	1.219462E-5	9.136404E-5	1.111248E-5	1.131277	103.314879	60.873908	119.914957	105.999602	0.589208	0.000115	0.002792
0.000128	1.266096E-5	9.902267E-5	1.144213E-5	1.226123	107.119515	60.175083	122.864279	100.205477	0.561756	0.000128	0.002899
0.000141	1.309374E-5	0.000107	1.177273E-5	1.328907	110.840136	59.377402	125.742641	94.621106	0.535703	0.000141	0.002998
0.000154	1.345097E-5	0.000116	1.210391E-5	1.440303	114.470867	58.487590	128.547180	89.250095	0.510939	0.000154	0.003080
0.000166	1.380225E-5	0.000126	1.243520E-5	1.561037	118.007056	57.512629	131.275922	84.095327	0.487366	0.000166	0.003160
0.000179	1.407528E-5	0.000137	1.276620E-5	1.691919	121.443015	56.459275	133.925560	79.156020	0.464903	0.000179	0.003223
0.000192	1.436873E-5	0.000148	1.309652E-5	1.833748	124.775795	55.335120	136.495327	74.435169	0.443476	0.000192	0.003290
0.000205	1.470639E-5	0.000161	1.342568E-5	1.987493	128.001432	54.146846	138.982904	69.928749	0.423018	0.000205	0.003367
0.000230	1.506644E-5	0.000174	1.375339E-5	2.154105	131.117680	52.901856	141.387596	65.636355	0.403469	0.000230	0.003450
0.000256	1.544969E-5	0.000189	1.407917E-5	2.334682	134.122881	51.606948	143.708817	61.553913	0.384774	0.000256	0.003538
0.000282	1.583039E-5	0.000204	1.440258E-5	2.530407	137.015437	50.268893	145.945851	57.676834	0.366885	0.000282	0.003625
0.000307	1.613098E-5	0.000221	1.472339E-5	2.742524	139.795136	48.894439	148.099109	54.001025	0.349758	0.000307	0.003694
0.000333	1.640434E-5	0.000240	1.504106E-5	2.972452	142.461062	47.489910	150.168058	50.519926	0.333354	0.000333	0.003756
0.000358	1.663817E-5	0.000260	1.535534E-5	3.221611	145.014354	46.061787	152.154038	47.229175	0.317636	0.000358	0.003810
0.000384	1.688683E-5	0.000282	1.566589E-5	3.491703	147.455008	44.615836	154.056977	44.120876	0.302573	0.000384	0.003867
0.000410	1.715585E-5	0.000306	1.597227E-5	3.784382	149.785245	43.158033	155.878913	41.190059	0.288133	0.000410	0.003928
0.000461	1.746127E-5	0.000331	1.627423E-5	4.101681	152.005716	41.693607	157.620095	38.428166	0.274290	0.000461	0.003998
0.000512	1.778141E-5	0.000359	1.657147E-5	4.445519	154.118767	40.228174	159.282454	35.829889	0.261021	0.000512	0.004071
0.000563	1.809026E-5	0.000389	1.686367E-5	4.818185	156.126514	38.766550	160.867441	33.387558	0.248302	0.000563	0.004142
0.000614	1.833892E-5	0.000422	1.715054E-5	5.222054	158.032317	37.313348	162.377644	31.094591	0.236112	0.000614	0.004199
0.000666	1.854112E-5	0.000457	1.743192E-5	5.659909	159.837999	35.872883	163.814070	28.942880	0.224433	0.000666	0.004245
0.000717	1.871233E-5	0.000495	1.770755E-5	6.134354	161.547312	34.449601	165.179626	26.926978	0.213248	0.000717	0.004285
0.000768	1.888685E-5	0.000537	1.797713E-5	6.648639	163.163251	33.047116	166.476300	25.039155	0.202540	0.000768	0.004325
0.000819	1.909289E-5	0.000582	1.824052E-5	7.206008	164.689212	31.669195	167.706513	23.273152	0.192297	0.000819	0.004372
0.000922	1.933140E-5	0.000631	1.849761E-5	7.810044	166.129044	30.319119	168.873053	21.622549	0.182503	0.000922	0.004426
0.001024	1.958387E-5	0.000684	1.874816E-5	8.464744	167.486441	28.999864	169.978528	20.080765	0.173148	0.001024	0.004484
0.001126	1.981370E-5	0.000741	1.899214E-5	9.174335	168.765283	27.714270	171.025733	18.641757	0.164218	0.001126	0.004537
0.001229	2.000677E-5	0.000803	1.922934E-5	9.943441	169.969503	26.464908	172.017509	17.299595	0.155704	0.001229	0.004581
0.001331	2.018499E-5	0.000870	1.945967E-5	10.777059	171.103103	25.254137	172.956767	16.048605	0.147596	0.001331	0.004622
0.001434	2.032909E-5	0.000943	1.968320E-5	11.680610	172.169952	24.084169	173.846310	14.883325	0.139886	0.001434	0.004655
0.001536	2.048001E-5	0.001022	1.989973E-5	12.659825	173.174191	22.957009	174.689223	13.798708	0.132566	0.001536	0.004689
0.001638	2.066070E-5	0.001108	2.010934E-5	13.721089	174.119910	21.874367	175.488550	12.789695	0.125628	0.001638	0.004731
0.001843	2.086442E-5	0.001201	2.031196E-5	14.871273	175.011387	20.837738	176.247544	11.851544	0.119065	0.001843	0.004777
0.002048	2.107949E-5	0.001302	2.050765E-5	16.118043	175.852547	19.848499	176.969153	10.979568	0.112870	0.002048	0.004827
0.002253	2.129724E-5	0.001411	2.069640E-5	17.469325	176.647368	18.908016	177.656426	10.169622	0.107038	0.002253	0.004876
0.002458	2.148037E-5	0.001529	2.087836E-5	18.933743	177.400080	18.017355	178.312685	9.417720	0.101563	0.002458	0.004918
0.002662	2.165108E-5	0.001657	2.105348E-5	20.521099	178.114466	17.177481	178.940853	8.719847	0.096441	0.002662	0.004957
0.002867	2.180546E-5	0.001796	2.122196E-5	22.241310	178.794610	16.389304	179.544206	8.072555	0.091666	0.002867	0.004993
0.003072	2.196974E-5	0.001947	2.138384E-5	24.105772	179.444349	15.653532	180.125810	7.472310	0.087233	0.003072	0.005030
0.003277	2.216112E-5	0.002110	2.153929E-5	26.126432	180.067756	14.970765	180.689016	6.915947	0.083140	0.003277	0.005074
0.003686	2.237942E-5	0.002287	2.168843E-5	28.317049	180.668203	14.341641	181.236537	6.400262	0.079381	0.003686	0.005124
0.004096	2.261774E-5	0.002479	2.183145E-5	30.690619	181.249782	13.766712	181.771851	5.922717	0.075954	0.004096	0.005179
0.004506	2.285113E-5	0.002686	2.196849E-5	33.263710	181.815928	13.246345	182.297826	5.480382	0.072856	0.004506	0.005232
0.004915	2.304730E-5	0.002912	2.209975E-5	36.052265	182.370313	12.781002	182.817628	5.070906	0.070083	0.004915	0.005277
0.005325	2.321475E-5	0.003156	2.222544E-5	39.074663	182.916330	12.371044	183.334194	4.691894	0.067632	0.005325	0.005316
0.005734	2.335674E-5	0.003420	2.234577E-5	42.349863	183.457707	12.016767	183.850844	4.341238	0.065502	0.005734	0.005348
0.006144	2.349479E-5	0.003707	2.246096E-5	45.900605	183.997520	11.718475	184.370307	4.016729	0.063688	0.006144	0.005380
0.006554	2.364398E-5	0.004018	2.257130E-5	49.748175	184.539248	11.476520	184.895767	3.716634	0.062190	0.006554	0.005414
0.007373	2.380156E-5	0.004355	2.267697E-5	53.918484	185.086130	11.291166	185.430219	3.439084	0.061005	0.007373	0.005450
0.008192	2.393772E-5	0.004720	2.277828E-5	58.438602	185.641311	11.162734	185.976619	3.182428	0.060131	0.008192	0.005481
0.009011	2.403613E-5	0.005115	2.287550E-5	63.337560	186.207920	11.091562	186.537965	2.945140	0.059565	0.009011	0.005504
0.009830	2.407563E-5	0.005544	2.296890E-5	68.647234	186.789026	11.078007	187.117243	2.725780	0.059308	0.009830	0.005513
0.010650	2.410799E-5	0.006009	2.305878E-5	74.402188	187.387686	11.122468	187.717485	2.523010	0.059355	0.010650	0.005520
0.011469	2.413631E-5	0.006513	2.314541E-5	80.640465	188.006641	11.225370	188.341461	2.335570	0.059707	0.011469	0.005527
0.012288	2.412073E-5	0.007059	2.322914E-5	87.400286	188.648852	11.387181	188.992215	2.162375	0.060362	0.012288	0.005523
0.013107	2.399296E-5	0.007650	2.331027E-5	94.726137	189.317313	11.608469	189.672880	2.002329	0.061318	0.013107	0.005494
0.014746	2.374504E-5	0.008292	2.338911E-5	102.667519	190.014664	11.889842	190.386294	1.854397	0.062573	0.014746	0.005437
0.016384	2.345393E-5	0.008987	2.346600E-5	111.273983	190.743743	12.231980	191.135546	1.717702	0.064128	0.016384	0.005370
0.018022	2.328447E-5	0.009740	2.354127E-5	120.602567	191.507186	12.635646	191.923584	1.591372	0.065980	0.018022	0.005331
0.019661	2.333432E-5	0.010557	2.361528E-5	130.712640	192.307768	13.101706	192.753553	1.474636	0.068129	0.019661	0.005343
0.021299	2.361581E-5	0.011442	2.368835E-5	141.671301	193.148064	13.631118	193.628463	1.366744	0.070573	0.021299	0.005407
0.022938	2.401323E-5	0.012401	2.376085E-5	153.548559	194.030588	14.224862	194.551319	1.267034	0.073312	0.022938	0.005498
0.024576	2.445671E-5	0.013440	2.383317E-5	166.419481	194.958179	14.884164	195.525523	1.174896	0.076345	0.024576	0.005600
0.026214	2.478982E-5	0.014567	2.390564E-5	180.371744	195.933246	15.610325	196.554113	1.089717	0.079672	0.026214	0.005676
0.029491	2.490333E-5	0.015788	2.397864E-5	195.492758	196.958482	16.404746	197.640480	1.010986	0.083290	0.029491	0.005702
0.032768	2.479720E-5	0.017112	2.405256E-5	211.883041	198.036243	17.268927	198.787750	0.938196	0.087201	0.032768	0.005678
0.036045	2.462606E-5	0.018547	2.412778E-5	229.644931	199.169102	18.204464	199.999334	0.870907	0.091402	0.036045	0.005639
0.039322	2.462381E-5	0.020101	2.420470E-5	248.893608	200.359978	19.213397	201.279098	0.808695	0.095894	0.039322	0.005638
0.042598	2.491635E-5	0.021786	2.428372E-5	269.761557	201.610907	20.297612	202.630084	0.751145	0.100677	0.042598	0.005705
0.045875	2.528885E-5	0.023613	2.436527E-5	292.372974	202.924877	21.459255	204.056378	0.697932	0.105750	0.045875	0.005790
0.049152	2.550531E-5	0.025592	2.444973E-5	316.883377	204.304359	22.700817	205.561665	0.648698	0.111113	0.049152	0.005840
0.052429	2.556915E-5	0.027738	2.453756E-5	343.449442	205.751830	24.024706	207.149709	0.603145	0.116765	0.052429	0.005855
0.058982	2.565597E-5	0.030063	2.462919E-5	372.240446	207.270008	25.433648	208.824632	0.560994	0.122708	0.058982	0.005874
0.065536	2.583241E-5	0.032583	2.472507E-5	403.445035	208.861767	26.930768	210.590845	0.521982	0.128941	0.065536	0.005915
0.072090	2.603707E-5	0.035314	2.482564E-5	437.271218	210.529384	28.519102	212.452255	0.485859	0.135464	0.072090	0.005962
0.078643	2.635889E-5	0.038275	2.493142E-5	473.928269	212.275756	30.201950	214.413513	0.452418	0.142277	0.078643	0.006035
0.085197	2.657459E-5	0.041484	2.504284E-5	513.657785	214.103637	31.983030	216.479286	0.421447	0.149381	0.085197	0.006085
0.091750	2.669028E-5	0.044961	2.516043E-5	556.716787	216.016054	33.866380	218.654676	0.392757	0.156777	0.091750	0.006111
0.098304	2.688415E-5	0.048730	2.528470E-5	603.390491	218.015375	35.855976	220.944234	0.366171	0.164465	0.098304	0.006156
0.104858	2.713157E-5	0.052816	2.541621E-5	653.967325	220.105446	37.956630	223.354232	0.341537	0.172447	0.104858	0.006212
0.117965	2.737458E-5	0.057243	2.555548E-5	708.801761	222.287977	40.172770	225.888902	0.318691	0.180724	0.117965	0.006268
0.131072	2.783570E-5	0.062042	2.570312E-5	768.212405	224.567063	42.509535	228.555084	0.297515	0.189296	0.131072	0.006374
0.144179	2.831241E-5	0.067244	2.585971E-5	832.613820	226.945358	44.972567	231.358439	0.277870	0.198165	0.144179	0.006483
0.157286	2.839931E-5	0.072881	2.602586E-5	902.410333	229.426474	47.567731	234.305775	0.259644	0.207333	0.157286	0.006503
0.170394	2.896810E-5	0.078990	2.620224E-5	978.067396	232.013010	50.300960	237.403082	0.242727	0.216802	0.170394	0.006633
0.183501	3.047646E-5	0.085612	2.638954E-5	1060.053066	234.709449	53.179268	240.658596	0.227025	0.226575	0.183501	0.006978
0.399815	3.296684E-5	0.092790	2.658849E-5	1148.936377	237.517513	56.209038	244.077908	0.212438	0.236652	0.399815	0.007548
0.599722	3.618803E-5	0.100569	2.679982E-5	1245.233505	240.442487	59.398075	247.670590	0.198895	0.247037	0.599722	0.008286
0.799630	3.973111E-5	0.109000	2.702431E-5	1349.626134	243.487776	62.754977	251.444793	0.186307	0.257734	0.799630	0.009097
0.999537	4.280777E-5	0.118137	2.726280E-5	1462.788011	246.655903	66.287271	255.407785	0.174603	0.268744	0.999537	0.009802
1.199440	4.580070E-5	0.128040	2.751618E-5	1585.403210	249.952289	70.004421	259.570348	0.163725	0.280071	1.199440	0.010487
1.399350	4.881180E-5	0.138773	2.778537E-5	1718.323285	253.379565	73.915730	263.940787	0.153604	0.291719	1.399350	0.011177
1.599260	5.180052E-5	0.150407	2.807140E-5	1862.357524	256.942731	78.031378	268.530190	0.144188	0.303692	1.599260	0.011861
1.799170	5.478505E-5	0.163016	2.837531E-5	2018.469777	260.646729	82.363077	273.350313	0.135425	0.315995	1.799170	0.012544
1.999070	5.785741E-5	0.176681	2.869817E-5	2187.707286	264.494666	86.921764	278.411245	0.127262	0.328633	1.999070	0.013248
2.198980	6.093963E-5	0.191496	2.904128E-5	2371.112720	268.490945	91.718961	283.724788	0.119659	0.341609	2.198980	0.013953
2.398890	6.406644E-5	0.207547	2.940575E-5	2569.858510	272.641594	96.768551	289.305359	0.112576	0.354930	2.398890	0.014669
2.598800	6.723386E-5	0.224946	2.979305E-5	2785.294848	276.950937	102.084606	295.166205	0.105973	0.368602	2.598800	0.015395
2.798700	7.035543E-5	0.243802	3.020460E-5	3018.800455	281.423816	107.681508	301.321541	0.099815	0.382631	2.798700	0.016109
2.998610	7.345468E-5	0.264244	3.064206E-5	3271.876847	286.065187	113.574585	307.786416	0.094070	0.397023	2.998610	0.016819
3.198520	7.651164E-5	0.286393	3.110690E-5	3546.147555	290.882012	119.781628	314.579057	0.088710	0.411788	3.198520	0.017519
3.398430	7.952364E-5	0.310404	3.160113E-5	3843.478627	295.877644	126.319258	321.714369	0.083704	0.426931	3.398430	0.018209
3.598330	8.271694E-5	0.336423	3.212652E-5	4165.680678	301.058443	133.205749	329.211114	0.079029	0.442458	3.598330	0.018940
3.798240	8.601279E-5	0.364628	3.268533E-5	4514.853928	306.432488	140.463041	337.091583	0.074663	0.458382	3.798240	0.019695
3.998150	8.941514E-5	0.395193	3.327967E-5	4893.395797	312.002496	148.110422	345.372632	0.070579	0.474709	3.998150	0.020474
4.198060	9.243233E-5	0.428324	3.391210E-5	5303.552055	317.778485	156.172080	354.080336	0.066763	0.491450	4.198060	0.021164
4.397960	9.594903E-5	0.464230	3.458517E-5	5748.184309	323.765726	164.672380	363.237165	0.063192	0.508616	4.397960	0.021970
4.597870	9.858513E-5	0.503146	3.530181E-5	6230.113652	329.969572	173.634977	372.865959	0.059849	0.526215	4.597870	0.022573
4.797780	0.000102	0.545331	3.606523E-5	6752.331159	336.400245	183.089026	382.997019	0.056721	0.544259	4.797780	0.023265
4.997680	0.000105	0.591045	3.687858E-5	7318.418237	343.063535	193.063255	393.657223	0.053790	0.562762	4.997680	0.024112
5.197590	0.000108	0.640600	3.774583E-5	7931.945447	349.967743	203.588338	404.877305	0.051044	0.581735	5.197590	0.024696
5.397500	0.000111	0.694298	3.867067E-5	8596.904458	357.121429	214.697658	416.690292	0.048470	0.601190	5.397500	0.025496
5.597410	0.000115	0.752498	3.965766E-5	9317.637843	364.531767	226.425047	429.129015	0.046056	0.621139	5.597410	0.026247
5.797320	0.000118	0.815579	4.071163E-5	10098.697809	372.208929	238.808373	442.231756	0.043791	0.641598	5.797320	0.026942
5.997220	0.000121	0.883956	4.183796E-5	10945.225226	380.163213	251.888891	456.039561	0.041666	0.662581	5.997220	0.027667
6.197130	0.000125	0.958055	4.304205E-5	11862.811284	388.403843	265.708941	470.594078	0.039670	0.684105	6.197130	0.028509
6.397040	0.000128	1.038381	4.433068E-5	12857.371917	396.940135	280.312386	485.938787	0.037795	0.706183	6.397040	0.029343
6.596940	0.000131	1.125420	4.571021E-5	13935.243145	405.783714	295.747630	502.122577	0.036033	0.728831	6.596940	0.030067
6.796850	0.000134	1.219776	4.718891E-5	15103.461730	414.943980	312.063867	519.193956	0.034376	0.752063	6.796850	0.030755
6.996760	0.000137	1.322019	4.877453E-5	16369.374630	424.438177	329.320807	537.215003	0.032818	0.775898	6.996760	0.031414
7.196670	0.000141	1.432859	5.047712E-5	17741.720835	434.276436	347.576306	556.242134	0.031352	0.800357	7.196670	0.032216
7.396570	0.000144	1.552985	5.230649E-5	19229.225827	444.468923	366.887506	576.332426	0.029972	0.825451	7.396570	0.032995
7.596480	0.000148	1.683174	5.427399E-5	20841.064843	455.034913	387.324737	597.559389	0.028672	0.851198	7.596480	0.033776
7.796390	0.000150	1.824257	5.639204E-5	22588.180275	465.989999	408.961467	619.996903	0.027448	0.877619	7.796390	0.034457
7.996300	0.000154	1.977215	5.867564E-5	24482.067971	477.345059	431.866642	643.713525	0.026293	0.904726	7.996300	0.035177
8.196200	0.000158	2.142969	6.113933E-5	26534.283790	489.123269	456.125316	668.798831	0.025205	0.932537	8.196200	0.036121
8.396110	0.000161	2.322598	6.380053E-5	28758.736808	501.340370	481.821752	695.337592	0.024178	0.961067	8.396110	0.036969
8.596020	0.000165	2.517306	6.667920E-5	31169.540135	514.017542	509.047657	723.424876	0.023209	0.990331	8.596020	0.037735
8.795930	0.000168	2.728330	6.979663E-5	33782.365740	527.179291	537.904910	753.166447	0.022295	1.020345	8.795930	0.038421
8.995830	0.000171	2.957038	7.317708E-5	36614.582636	540.847191	568.496479	784.668038	0.021430	1.051122	8.995830	0.039193
9.195740	0.000175	3.204950	7.684829E-5	39684.316253	555.045712	600.930897	818.042594	0.020614	1.082669	9.195740	0.040010
9.395650	0.000177	3.473634	8.084028E-5	43011.160550	569.802433	635.325098	853.412441	0.019842	1.114992	9.395650	0.040565
9.595560	0.000182	3.764866	8.518797E-5	46616.467800	585.152363	671.812098	890.917945	0.019112	1.148098	9.595560	0.041667
9.795460	0.000185	4.080476	8.992935E-5	50524.335969	601.127486	710.527160	930.700327	0.018421	1.181991	9.795460	0.042297
9.995370	0.000187	4.422555	9.510898E-5	54759.971968	617.763481	751.612070	972.909257	0.017767	1.216666	9.995370	0.042780
10.195300	0.000191	4.793300	0.000101	59350.504073	635.106166	795.228444	1017.717112	0.017148	1.252119	10.195300	0.043745
10.395200	0.000195	5.195072	0.000107	64326.627112	653.191043	841.526764	1065.282044	0.016561	1.288332	10.395200	0.044689
10.595100	0.000197	5.630656	0.000114	69718.680013	672.078393	890.694545	1115.807393	0.016004	1.325284	10.595100	0.045071
10.795000	0.000201	6.102643	0.000121	75563.245796	691.824426	942.924686	1169.499038	0.015477	1.362954	10.795000	0.046052
10.994900	0.000205	6.614232	0.000130	81898.617117	712.481879	998.399912	1226.553225	0.014976	1.401299	10.994900	0.046827
11.194800	0.000209	7.168693	0.000139	88763.247420	734.138370	1057.359513	1287.232802	0.014502	1.440273	11.194800	0.047897
11.394700	0.000213	7.769729	0.000149	96204.682592	756.872097	1120.038167	1351.791724	0.014051	1.479825	11.394700	0.048778
11.594600	0.000216	8.421045	0.000160	104270.626931	780.770957	1186.674428	1420.492691	0.013623	1.519875	11.594600	0.049493
11.794500	0.000219	9.126952	0.000172	113010.359607	805.975256	1257.598432	1493.703428	0.013217	1.560344	11.794500	0.050169
11.994400	0.000224	9.892168	0.000186	122485.967130	832.609593	1333.117218	1571.763421	0.012832	1.601131	11.994400	0.051360
12.194400	0.000227	10.721393	0.000202	132753.978501	860.871517	1413.647202	1655.142948	0.012468	1.642112	12.194400	0.051975
12.394300	0.000231	11.620189	0.000219	143882.250948	891.017531	1499.719842	1744.440267	0.012124	1.683154	12.394300	0.052856
