MicroRheology Analysis v9.2.8
10/11/18 8:14:42 PM

Correlation Mode:	Cross
Geometry:	Transmission
Multi-Tau Duration (s):	120
Echo Duration (s):	60
Wavelength (nm):	685.0
Temperature (°C):	40.00
Cuvette Thickness (mm):	5.00
Absorption Length (mm):	100.259
Solvent:	Water
Solvent Refractive Index:	1.328
Particle Radius (nm):	300.0
Mean Count Rate (kHz):	608.9
l* (microns):	779.92



Lag Time (s)	Mean Square Displacement (micron^2)	Fit Lag Time (s)	Mean Square Displacement Fit (micron^2)	Frequency(rad/s)	G1 (Pa)	G2 (Pa)	G* (Pa)	Complex Viscosity (Pa s)	Loss Tangent (-)	Time (s)	Creep Compliance (1/Pa)

3.212500E-6	2.800395E-6	3.212543E-6	2.929999E-6	0.119103	0.458183	2.751225	2.789117	23.417764	6.004649	3.212500E-6	0.000610
3.612500E-6	3.103549E-6	3.509700E-6	3.102725E-6	0.130119	0.434637	2.979222	3.010760	23.138443	6.854502	3.612500E-6	0.000677
4.012500E-6	3.382779E-6	3.834456E-6	3.284410E-6	0.142159	0.413075	3.228496	3.254815	22.895613	7.815759	4.012500E-6	0.000737
4.412500E-6	3.638047E-6	4.189188E-6	3.475191E-6	0.155309	0.394157	3.501416	3.523532	22.687273	8.883302	4.412500E-6	0.000793
4.812500E-6	3.815247E-6	4.576735E-6	3.675320E-6	0.169679	0.378653	3.800249	3.819067	22.507664	10.036237	4.812500E-6	0.000832
5.212500E-6	4.016998E-6	5.000107E-6	3.884981E-6	0.185374	0.367536	4.127713	4.144044	22.355070	11.230761	5.212500E-6	0.000876
5.612500E-6	4.175521E-6	5.462724E-6	4.104400E-6	0.202525	0.361945	4.486367	4.500944	22.224102	12.395170	5.612500E-6	0.000910
6.012500E-6	4.453902E-6	5.968035E-6	4.333645E-6	0.221259	0.363271	4.879284	4.892788	22.113439	13.431513	6.012500E-6	0.000971
6.412500E-6	4.649670E-6	6.520180E-6	4.572926E-6	0.241729	0.373137	5.309450	5.322546	22.018603	14.229235	6.412500E-6	0.001014
7.212500E-6	4.925257E-6	7.123385E-6	4.822291E-6	0.264095	0.393454	5.779988	5.793364	21.936669	14.690364	7.212500E-6	0.001074
8.012500E-6	5.231912E-6	7.782395E-6	5.081813E-6	0.288526	0.426458	6.294309	6.308740	21.865414	14.759509	8.012500E-6	0.001141
8.812500E-6	5.578815E-6	8.502373E-6	5.351523E-6	0.315218	0.474724	6.855864	6.872280	21.801688	14.441798	8.812500E-6	0.001216
9.612500E-6	5.765044E-6	9.288994E-6	5.631426E-6	0.344379	0.541209	7.468185	7.487770	21.742789	13.799073	9.612500E-6	0.001257
1.041250E-5	6.069207E-6	1.014834E-5	5.921449E-6	0.376239	0.629276	8.134800	8.159103	21.685965	12.927246	1.041250E-5	0.001323
1.121250E-5	6.292389E-6	1.108712E-5	6.221501E-6	0.411042	0.742753	8.859528	8.890609	21.629447	11.927967	1.121250E-5	0.001372
1.201250E-5	6.569638E-6	1.211292E-5	6.531531E-6	0.449072	0.885898	9.645715	9.686312	21.569631	10.888060	1.201250E-5	0.001432
1.281250E-5	6.835798E-6	1.323332E-5	6.851229E-6	0.490613	1.063513	10.497168	10.550905	21.505544	9.870274	1.281250E-5	0.001490
1.441250E-5	7.170860E-6	1.445778E-5	7.180579E-6	0.536008	1.280835	11.416874	11.488496	21.433443	8.913620	1.441250E-5	0.001563
1.601250E-5	7.471201E-6	1.579517E-5	7.519121E-6	0.585591	1.543673	12.408243	12.503896	21.352624	8.038130	1.601250E-5	0.001629
1.761250E-5	7.825513E-6	1.725631E-5	7.866648E-6	0.639763	1.858384	13.474214	13.601766	21.260625	7.250502	1.761250E-5	0.001706
1.921250E-5	8.114513E-6	1.885302E-5	8.222888E-6	0.698954	2.231801	14.617222	14.786620	21.155358	6.549518	1.921250E-5	0.001769
2.081250E-5	8.406429E-6	2.059718E-5	8.587305E-6	0.763622	2.671208	15.839140	16.062805	21.035010	5.929580	2.081250E-5	0.001833
2.241250E-5	8.709700E-6	2.250234E-5	8.959443E-6	0.834264	3.184417	17.141625	17.434902	20.898539	5.382971	2.241250E-5	0.001899
2.401250E-5	9.066023E-6	2.458427E-5	9.338983E-6	0.911440	3.779663	18.525534	18.907175	20.744284	4.901372	2.401250E-5	0.001976
2.561250E-5	9.498376E-6	2.685882E-5	9.725304E-6	0.995753	4.465614	19.991246	20.483936	20.571303	4.476707	2.561250E-5	0.002071
2.881250E-5	1.000522E-5	2.934337E-5	1.011777E-5	1.087876	5.251169	21.537988	22.168891	20.378135	4.101560	2.881250E-5	0.002181
3.201250E-5	1.049585E-5	3.205795E-5	1.051587E-5	1.188525	6.145354	23.164039	23.965352	20.163949	3.769358	3.201250E-5	0.002288
3.521250E-5	1.093212E-5	3.502370E-5	1.091894E-5	1.298474	7.157501	24.867220	25.876794	19.928616	3.474288	3.521250E-5	0.002383
3.841250E-5	1.127244E-5	3.826385E-5	1.132632E-5	1.418609	8.296766	26.643687	27.905597	19.671097	3.211334	3.841250E-5	0.002457
4.161250E-5	1.161868E-5	4.180415E-5	1.173732E-5	1.549852	9.572219	28.488867	30.054000	19.391535	2.976203	4.161250E-5	0.002533
4.481250E-5	1.198707E-5	4.567146E-5	1.215114E-5	1.693235	10.992632	30.396882	32.323496	19.089787	2.765205	4.481250E-5	0.002613
4.801250E-5	1.239697E-5	4.989691E-5	1.256711E-5	1.849876	12.566398	32.360851	34.715113	18.766183	2.575189	4.801250E-5	0.002702
5.121250E-5	1.282282E-5	5.451284E-5	1.298438E-5	2.021007	14.301319	34.372651	37.229113	18.421074	2.403460	5.121250E-5	0.002795
5.761250E-5	1.329072E-5	5.955603E-5	1.340225E-5	2.207967	16.204468	36.423066	39.865079	18.055105	2.247717	5.761250E-5	0.002897
6.401250E-5	1.375254E-5	6.506508E-5	1.381986E-5	2.412226	18.282096	38.501867	42.621929	17.669124	2.105988	6.401250E-5	0.002998
7.041250E-5	1.419198E-5	7.108503E-5	1.423654E-5	2.635400	20.539150	40.597416	45.497328	17.263918	1.976587	7.041250E-5	0.003094
7.681250E-5	1.461564E-5	7.766136E-5	1.465141E-5	2.879214	22.979224	42.697168	48.488070	16.840729	1.858077	7.681250E-5	0.003186
8.321250E-5	1.500375E-5	8.484589E-5	1.506370E-5	3.145551	25.605217	44.788573	51.591118	16.401297	1.749197	8.321250E-5	0.003271
8.961250E-5	1.532284E-5	9.269417E-5	1.547261E-5	3.436566	28.418181	46.857556	54.801675	15.946640	1.648858	8.961250E-5	0.003340
9.601250E-5	1.568053E-5	0.000101	1.587751E-5	3.754526	31.416826	48.889076	58.113327	15.478205	1.556143	9.601250E-5	0.003418
0.000102	1.606622E-5	0.000111	1.627765E-5	4.101826	34.599713	50.869548	61.521143	14.998477	1.470230	0.000102	0.003502
0.000115	1.646537E-5	0.000121	1.667216E-5	4.481341	37.962226	52.783046	65.016771	14.508330	1.390410	0.000115	0.003589
0.000128	1.693302E-5	0.000132	1.706059E-5	4.895907	41.498619	54.615181	68.592663	14.010205	1.316072	0.000128	0.003691
0.000141	1.739235E-5	0.000144	1.744221E-5	5.348814	45.201657	56.351506	72.240446	13.505881	1.246669	0.000141	0.003791
0.000154	1.776204E-5	0.000158	1.781641E-5	5.843648	49.062010	57.977768	75.950658	12.997132	1.181724	0.000154	0.003872
0.000166	1.810053E-5	0.000172	1.818273E-5	6.384265	53.068497	59.480434	79.713157	12.485878	1.120824	0.000166	0.003946
0.000179	1.837373E-5	0.000188	1.854054E-5	6.974862	57.209411	60.847564	83.518517	11.974217	1.063594	0.000179	0.004005
0.000192	1.863870E-5	0.000206	1.888955E-5	7.620229	61.469419	62.066565	87.354153	11.463456	1.009715	0.000192	0.004063
0.000205	1.895241E-5	0.000225	1.922927E-5	8.325105	65.834428	63.128535	91.210656	10.956097	0.958899	0.000205	0.004131
0.000230	1.929371E-5	0.000245	1.955932E-5	9.095318	70.287695	64.023944	95.075893	10.453278	0.910884	0.000230	0.004206
0.000256	1.965472E-5	0.000268	1.987955E-5	9.936743	74.811959	64.745881	98.938659	9.956850	0.865448	0.000256	0.004285
0.000282	2.001147E-5	0.000293	2.018967E-5	10.856002	79.389475	65.288844	102.787752	9.468287	0.822387	0.000282	0.004362
0.000307	2.031041E-5	0.000320	2.048955E-5	11.860339	84.001864	65.648989	106.611927	8.988945	0.781518	0.000307	0.004427
0.000333	2.057534E-5	0.000350	2.077907E-5	12.957623	88.630375	65.824269	110.400080	8.520088	0.742683	0.000333	0.004485
0.000358	2.079109E-5	0.000382	2.105821E-5	14.156421	93.256393	65.814530	114.141610	8.062886	0.705737	0.000358	0.004532
0.000384	2.100463E-5	0.000417	2.132701E-5	15.466134	97.861105	65.621250	117.825907	7.618317	0.670555	0.000384	0.004579
0.000410	2.123911E-5	0.000456	2.158549E-5	16.896857	102.427327	65.248119	121.444120	7.187379	0.637019	0.000410	0.004630
0.000461	2.150778E-5	0.000498	2.183391E-5	18.460090	106.937557	64.699795	124.986818	6.770651	0.605024	0.000461	0.004688
0.000512	2.179332E-5	0.000544	2.207241E-5	20.167919	111.374664	63.982909	128.445040	6.368780	0.574484	0.000512	0.004751
0.000563	2.206349E-5	0.000594	2.230128E-5	22.033361	115.725319	63.106069	131.813221	5.982438	0.545309	0.000563	0.004810
0.000614	2.228228E-5	0.000649	2.252086E-5	24.072055	119.973971	62.077697	135.082916	5.611607	0.517426	0.000614	0.004857
0.000666	2.248676E-5	0.000709	2.273153E-5	26.299043	124.108286	60.909062	138.248980	5.256806	0.490774	0.000666	0.004902
0.000717	2.265340E-5	0.000775	2.293371E-5	28.732122	128.116737	59.611487	141.306148	4.918055	0.465290	0.000717	0.004938
0.000768	2.283273E-5	0.000847	2.312789E-5	31.390066	131.990029	58.197548	144.250900	4.595431	0.440924	0.000768	0.004977
0.000819	2.303175E-5	0.000925	2.331463E-5	34.294005	135.719725	56.680153	147.079855	4.288792	0.417626	0.000819	0.005021
0.000922	2.325277E-5	0.001011	2.349449E-5	37.466329	139.300082	55.072998	149.791682	3.998035	0.395355	0.000922	0.005069
0.001024	2.347771E-5	0.001104	2.366813E-5	40.932635	142.725677	53.389684	152.384635	3.722815	0.374072	0.001024	0.005118
0.001126	2.369223E-5	0.001206	2.383623E-5	44.719425	145.993401	51.644516	154.858739	3.462896	0.353746	0.001126	0.005165
0.001229	2.386723E-5	0.001318	2.399948E-5	48.856581	149.101401	49.851482	157.214497	3.217878	0.334346	0.001229	0.005203
0.001331	2.403521E-5	0.001440	2.415864E-5	53.376193	152.049871	48.024536	159.453816	2.987358	0.315847	0.001331	0.005239
0.001434	2.417130E-5	0.001573	2.431450E-5	58.314239	154.840080	46.177158	161.579021	2.770833	0.298225	0.001434	0.005269
0.001536	2.431856E-5	0.001718	2.446791E-5	63.709446	157.474088	44.322727	163.592764	2.567794	0.281460	0.001536	0.005301
0.001638	2.448907E-5	0.001877	2.461969E-5	69.602967	159.956581	42.474093	165.499717	2.377768	0.265535	0.001638	0.005338
0.001843	2.469100E-5	0.002051	2.477078E-5	76.043028	162.291737	40.643266	167.303566	2.200117	0.250433	0.001843	0.005382
0.002048	2.492315E-5	0.002241	2.492212E-5	83.077977	164.485472	38.842258	169.009442	2.034347	0.236144	0.002048	0.005433
0.002253	2.516356E-5	0.002448	2.507462E-5	90.762619	166.545566	37.081751	170.623802	1.879891	0.222652	0.002253	0.005485
0.002458	2.536104E-5	0.002675	2.522931E-5	99.160409	168.478665	35.371820	172.151754	1.736094	0.209948	0.002458	0.005528
0.002662	2.555259E-5	0.002922	2.538722E-5	108.333215	170.293817	33.722224	173.600612	1.602469	0.198024	0.002662	0.005570
0.002867	2.569984E-5	0.003192	2.554938E-5	118.356553	171.999232	32.141528	174.976609	1.478385	0.186870	0.002867	0.005602
0.003072	2.584705E-5	0.003488	2.571687E-5	129.305729	173.604250	30.638042	176.287053	1.363335	0.176482	0.003072	0.005634
0.003277	2.601519E-5	0.003810	2.589082E-5	141.266857	175.118909	29.218878	177.539785	1.256769	0.166852	0.003277	0.005671
0.003686	2.620820E-5	0.004163	2.607242E-5	154.337078	176.552369	27.890670	178.741793	1.158126	0.157974	0.003686	0.005713
0.004096	2.642550E-5	0.004548	2.626280E-5	168.613805	177.914989	26.659567	179.901295	1.066943	0.149844	0.004096	0.005760
0.004506	2.665639E-5	0.004969	2.646325E-5	184.212771	179.216736	25.530760	181.026126	0.982701	0.142457	0.004506	0.005811
0.004915	2.684993E-5	0.005429	2.667505E-5	201.256548	180.467335	24.509171	182.124020	0.904935	0.135809	0.004915	0.005853
0.005325	2.704371E-5	0.005931	2.689948E-5	219.876073	181.676518	23.599249	183.202843	0.833210	0.129897	0.005325	0.005895
0.005734	2.717360E-5	0.006479	2.713790E-5	240.214728	182.854544	22.804763	184.271108	0.767110	0.124715	0.005734	0.005924
0.006144	2.728884E-5	0.007079	2.739183E-5	262.440277	184.010420	22.129128	185.336270	0.706204	0.120260	0.006144	0.005949
0.006554	2.742837E-5	0.007734	2.766266E-5	286.717748	185.153686	21.575596	186.406529	0.650139	0.116528	0.006554	0.005979
0.007373	2.760279E-5	0.008449	2.795202E-5	313.241187	186.293542	21.146926	187.489936	0.598548	0.113514	0.007373	0.006017
0.008192	2.782575E-5	0.009231	2.826156E-5	342.222065	187.438634	20.845744	188.594238	0.551087	0.111214	0.008192	0.006066
0.009011	2.810001E-5	0.010085	2.859289E-5	373.884977	188.597304	20.674545	189.727119	0.507448	0.109623	0.009011	0.006126
0.009830	2.835707E-5	0.011018	2.894797E-5	408.474070	189.777762	20.635668	190.896385	0.467340	0.108736	0.009830	0.006182
0.010650	2.867118E-5	0.012037	2.932852E-5	446.261171	190.988018	20.731385	192.109899	0.430488	0.108548	0.010650	0.006250
0.011469	2.892479E-5	0.013150	2.973672E-5	487.547939	192.235357	20.963938	193.375074	0.396628	0.109053	0.011469	0.006305
0.012288	2.921581E-5	0.014367	3.017472E-5	532.649252	193.527059	21.335622	194.699592	0.365531	0.110246	0.012288	0.006369
0.013107	2.957671E-5	0.015696	3.064464E-5	581.920284	194.870291	21.848888	196.091316	0.336973	0.112120	0.013107	0.006447
0.014746	3.000858E-5	0.017148	3.114907E-5	635.758701	196.271338	22.506235	197.557507	0.310743	0.114669	0.014746	0.006542
0.016384	3.047404E-5	0.018735	3.169051E-5	694.572742	197.736667	23.310347	199.105906	0.286660	0.117886	0.016384	0.006643
0.018022	3.100539E-5	0.020468	3.227172E-5	758.829994	199.272322	24.264174	200.744137	0.264544	0.121764	0.018022	0.006759
0.019661	3.149521E-5	0.022362	3.289575E-5	829.034254	200.884137	25.370911	202.479924	0.244236	0.126296	0.019661	0.006866
0.021299	3.211264E-5	0.024430	3.356576E-5	905.738588	202.577419	26.633920	204.320769	0.225585	0.131475	0.021299	0.007000
0.022938	3.262023E-5	0.026691	3.428525E-5	989.530480	204.357496	28.056860	206.274510	0.208457	0.137293	0.022938	0.007111
0.024576	3.306880E-5	0.029160	3.505776E-5	1081.064029	206.229865	29.644032	208.349528	0.192726	0.143743	0.024576	0.007209
0.026214	3.356016E-5	0.031857	3.588749E-5	1181.077365	208.199282	31.400014	210.553798	0.178273	0.150817	0.026214	0.007316
0.029491	3.425629E-5	0.034804	3.677868E-5	1290.342265	210.270593	33.329697	212.895728	0.164992	0.158509	0.029491	0.007468
0.032768	3.515084E-5	0.038024	3.773614E-5	1409.716477	212.448507	35.438532	215.383977	0.152785	0.166810	0.032768	0.007663
0.036045	3.627069E-5	0.041542	3.876488E-5	1540.137440	214.737546	37.732418	218.027404	0.141564	0.175714	0.036045	0.007907
0.039322	3.737450E-5	0.045386	3.987064E-5	1682.623659	217.142082	40.217690	220.835111	0.131245	0.185214	0.039322	0.008147
0.042598	3.850703E-5	0.049584	4.105888E-5	1838.282466	219.666705	42.901394	223.816869	0.121753	0.195302	0.042598	0.008394
0.045875	3.925535E-5	0.054171	4.233678E-5	2008.344428	222.316037	45.791385	226.982976	0.113020	0.205974	0.045875	0.008557
0.049152	4.003846E-5	0.059183	4.371129E-5	2194.162140	225.093457	48.895342	230.342829	0.104980	0.217222	0.049152	0.008728
0.052429	4.103469E-5	0.064657	4.519006E-5	2397.114063	228.004750	52.222634	233.908891	0.097579	0.229042	0.052429	0.008945
0.058982	4.244142E-5	0.070639	4.678189E-5	2618.897714	231.053448	55.783027	237.691905	0.090760	0.241429	0.058982	0.009252
0.065536	4.437024E-5	0.077175	4.849595E-5	2861.190565	234.243995	59.586473	241.703944	0.084477	0.254378	0.065536	0.009672
0.072090	4.668674E-5	0.084315	5.034244E-5	3125.885009	237.581238	63.644369	245.958229	0.078684	0.267885	0.072090	0.010177
0.078643	4.879156E-5	0.092115	5.233245E-5	3415.083198	241.069386	67.968624	250.467928	0.073342	0.281946	0.078643	0.010636
0.085197	5.114747E-5	0.100637	5.447819E-5	3731.016746	244.713530	72.572239	255.247805	0.068412	0.296560	0.085197	0.011150
0.091750	5.274992E-5	0.109947	5.679311E-5	4076.190296	248.517782	77.468673	260.312281	0.063862	0.311723	0.091750	0.011499
0.098304	5.431166E-5	0.120119	5.929206E-5	4453.233525	252.488540	82.673495	265.679073	0.059660	0.327435	0.098304	0.011839
0.104858	5.631446E-5	0.131230	6.199057E-5	4865.225387	256.630527	88.203032	271.365072	0.055776	0.343697	0.104858	0.012276
0.117965	5.906969E-5	0.143372	6.490760E-5	5315.361393	260.948137	94.073330	277.387313	0.052186	0.360506	0.117965	0.012877
0.131072	6.271703E-5	0.156635	6.806127E-5	5807.045422	265.448997	100.303732	283.767526	0.048866	0.377864	0.131072	0.013672
0.144179	6.726421E-5	0.171126	7.147373E-5	6344.321804	270.137292	106.913391	290.524749	0.045793	0.395774	0.144179	0.014663
0.157286	6.781165E-5	0.186957	7.516832E-5	6931.221047	275.020679	113.923642	297.682666	0.042948	0.414237	0.157286	0.014782
0.170394	7.454238E-5	0.204252	7.917076E-5	7572.468098	280.105556	121.357477	305.265065	0.040312	0.433256	0.170394	0.016249
0.183501	9.187697E-5	0.223148	8.350985E-5	8273.077790	285.397289	129.237440	313.295274	0.037869	0.452833	0.183501	0.020028
0.399815	0.000122	0.243794	8.821760E-5	9038.311343	290.906938	137.591690	321.804785	0.035605	0.472975	0.399815	0.026633
0.599723	0.000158	0.266345	9.332682E-5	9874.592859	296.639570	146.447115	330.819878	0.033502	0.493687	0.599723	0.034389
0.799630	0.000204	0.290988	9.887786E-5	10788.164485	302.603454	155.831718	340.370937	0.031550	0.514970	0.799630	0.044481
0.999538	0.000263	0.317909	0.000105	11786.075068	308.809736	165.778816	350.494035	0.029738	0.536832	0.999538	0.057435
1.199450	0.000299	0.347317	0.000111	12876.415579	315.267304	176.322636	361.224508	0.028053	0.559280	1.199450	0.065108
1.399350	0.000343	0.379449	0.000119	14067.659127	321.987211	187.499851	372.601608	0.026486	0.582321	1.399350	0.074680
1.599260	0.000385	0.414555	0.000126	15369.226127	328.978207	199.347014	384.663350	0.025028	0.605958	1.599260	0.083844
1.799170	0.000429	0.452905	0.000135	16790.910391	336.255598	211.907695	397.457794	0.023671	0.630198	1.799170	0.093613
1.999080	0.000473	0.494803	0.000144	18344.300403	343.830490	225.225866	411.030530	0.022406	0.655049	1.999080	0.103135
2.198980	0.000517	0.540577	0.000154	20041.319903	351.718643	239.350136	425.434474	0.021228	0.680516	2.198980	0.112628
2.398890	0.000562	0.590585	0.000165	21895.510264	359.933375	254.329983	440.721879	0.020128	0.706603	2.398890	0.122441
2.598800	0.000605	0.645223	0.000177	23921.067545	368.494011	270.222061	456.954920	0.019103	0.733315	2.598800	0.131778
2.798710	0.000652	0.704916	0.000190	26134.326072	377.415570	287.082452	474.192837	0.018144	0.760653	2.798710	0.142067
2.998610	0.000695	0.770135	0.000205	28552.096855	386.719292	304.973867	492.504691	0.017249	0.788618	2.998610	0.151580
3.198520	0.000738	0.841379	0.000220	31193.505833	396.426532	323.963402	511.963164	0.016412	0.817209	3.198520	0.160903
3.398430	0.000787	0.919222	0.000238	34079.247887	406.559964	344.121349	532.644822	0.015630	0.846422	3.398430	0.171471
3.598340	0.000828	1.004265	0.000256	37231.711659	417.148915	365.528156	554.638667	0.014897	0.876253	3.598340	0.180568
3.798240	0.000877	1.097165	0.000277	40676.421194	428.218675	388.263496	578.030947	0.014210	0.906694	3.798240	0.191278
3.998150	0.000924	1.198661	0.000299	44439.831354	439.796945	412.408515	602.911383	0.013567	0.937725	3.998150	0.201322
4.198060	0.000966	1.309548	0.000324	48550.327034	451.925544	438.064449	629.394280	0.012964	0.969329	4.198060	0.210524
4.397970	0.001013	1.430710	0.000351	53041.908210	464.640567	465.332465	657.590419	0.012398	1.001489	4.397970	0.220873
4.597870	0.001058	1.563078	0.000381	57949.817732	477.977061	494.308946	687.607013	0.011866	1.034169	4.597870	0.230565
4.797780	0.001104	1.707678	0.000413	63310.486056	491.986206	525.110423	719.577225	0.011366	1.067328	4.797780	0.240553
4.997690	0.001151	1.865644	0.000448	69166.893765	506.723940	557.866978	753.647608	0.010896	1.100929	4.997690	0.250916
5.197600	0.001202	2.038265	0.000487	75566.822967	522.233829	592.690211	789.942946	0.010454	1.134913	5.197600	0.261962
5.397500	0.001247	2.226816	0.000529	82556.447875	538.593695	629.733364	828.641828	0.010037	1.169218	5.397500	0.271942
5.597410	0.001293	2.432842	0.000575	90194.753582	555.861317	669.129424	869.894241	0.009645	1.203770	5.597410	0.281927
5.797320	0.001331	2.657886	0.000626	98538.269076	574.121734	711.039198	913.888673	0.009274	1.238482	5.797320	0.290199
5.997230	0.001385	2.903774	0.000681	107654.284047	593.460103	755.626928	960.815772	0.008925	1.273256	5.997230	0.301957
6.197140	0.001422	3.172410	0.000741	117614.218327	613.970471	803.061680	1010.874770	0.008595	1.307981	6.197140	0.309885
6.397040	0.001466	3.465893	0.000807	128495.153619	635.761736	853.527609	1064.284908	0.008283	1.342527	6.397040	0.319534
6.596950	0.001502	3.786517	0.000878	140382.704061	658.953644	907.218089	1121.278095	0.007987	1.376756	6.596950	0.327381
6.796860	0.001538	4.136855	0.000955	153369.993149	683.681498	964.339158	1182.104226	0.007708	1.410509	6.796860	0.335268
6.996760	0.001579	4.519598	0.001039	167559.330624	710.088909	1025.094789	1247.014669	0.007442	1.443615	6.996760	0.344150
7.196670	0.001608	4.937654	0.001130	183058.845669	738.357528	1089.732755	1316.316571	0.007191	1.475888	7.196670	0.350523
7.396580	0.001638	5.394506	0.001229	199995.715257	768.662756	1158.472501	1390.288088	0.006952	1.507127	7.396580	0.356985
7.596490	0.001677	5.893498	0.001335	218496.349755	801.230562	1231.584897	1469.275935	0.006724	1.537117	7.596490	0.365542
7.796400	0.001721	6.438788	0.001449	238709.735269	836.304799	1309.346606	1553.639035	0.006508	1.565633	7.796400	0.375148
7.996300	0.001739	7.034383	0.001572	260793.192841	874.181828	1392.084741	1643.804670	0.006303	1.592443	7.996300	0.379011
8.196210	0.001768	7.685250	0.001704	284924.649568	915.177516	1480.116211	1740.199381	0.006108	1.617300	8.196210	0.385412
